subjID,experimentName,versionName,windowWidth,windowHeight,screenWidth,screenHeight,startDate,startTime,pracTries,trialNum,objectSize,objectCategory,object,misscaled,objectScene1SemanticCongruency,scene1ZoomName,scene1Category,scene1,scene2SizeCong,scene2SemCong,scene2ZoomName,scene2Category,scene2,keyPress,accuracy,RT,experimentTime,totalTime
566260,OSS,v6,1263,616,1280,720,12-14-2022,16-3-42,2,0,small,bathroom,floss.png,scaled,0,zi,laundromat,l5_zi.png,0,0,zo,classroom,c2_zo.png,none,0,2011,67744,257377
566260,OSS,v6,1263,616,1280,720,12-14-2022,16-3-42,2,1,large,classroom,computer.png,scaled,0,zo,bathroom,b0_zo.png,1,1,zo,bathroom,b1_zo.png,none,0,1999,67744,257377
566260,OSS,v6,1263,616,1280,720,12-14-2022,16-3-42,2,2,large,kitchen,pot.png,scaled,0,zo,laundromat,l5_zo.png,0,0,zi,bathroom,b3_zi.png,none,0,2001,67744,257377
566260,OSS,v6,1263,616,1280,720,12-14-2022,16-3-42,2,3,large,kitchen,toaster.png,scaled,1,zo,kitchen,k5_zo.png,0,1,zi,kitchen,k2_zi.png,none,0,1993,67744,257377
566260,OSS,v6,1263,616,1280,720,12-14-2022,16-3-42,2,4,small,classroom,eraser.png,scaled,1,zi,classroom,c1_zi.png,0,0,zo,bathroom,b3_zo.png,m,1,776,67744,257377
566260,OSS,v6,1263,616,1280,720,12-14-2022,16-3-42,2,5,small,laundromat,coins.png,scaled,0,zi,classroom,c0_zi.png,1,0,zi,kitchen,k0_zi.png,m,1,829,67744,257377
566260,OSS,v6,1263,616,1280,720,12-14-2022,16-3-42,2,6,large,kitchen,kettle.png,scaled,1,zo,kitchen,k4_zo.png,1,1,zo,kitchen,k1_zo.png,c,1,760,67744,257377
566260,OSS,v6,1263,616,1280,720,12-14-2022,16-3-42,2,7,large,classroom,notebook.png,misscaled,1,zi,classroom,c3_zi.png,1,0,zi,bathroom,b1_zi.png,m,1,811,67744,257377
566260,OSS,v6,1263,616,1280,720,12-14-2022,16-3-42,2,8,small,bathroom,nailclipper.png,misscaled,0,zo,classroom,c1_zo.png,1,0,zo,laundromat,l1_zo.png,m,1,671,67744,257377
566260,OSS,v6,1263,616,1280,720,12-14-2022,16-3-42,2,9,large,classroom,powerstrip.png,misscaled,0,zi,kitchen,k4_zi.png,1,1,zi,kitchen,k1_zi.png,c,1,652,67744,257377
566260,OSS,v6,1263,616,1280,720,12-14-2022,16-3-42,2,10,small,laundromat,tidepod.png,misscaled,1,zo,laundromat,l3_zo.png,0,0,zi,bathroom,b2_zi.png,m,1,864,67744,257377
566260,OSS,v6,1263,616,1280,720,12-14-2022,16-3-42,2,11,small,classroom,paperclip.png,misscaled,0,zo,kitchen,k3_zo.png,0,0,zi,bathroom,b0_zi.png,m,1,773,67744,257377
566260,OSS,v6,1263,616,1280,720,12-14-2022,16-3-42,2,12,large,bathroom,loofah.png,misscaled,1,zi,bathroom,b5_zi.png,1,1,zi,bathroom,b4_zi.png,c,1,736,67744,257377
566260,OSS,v6,1263,616,1280,720,12-14-2022,16-3-42,2,13,small,kitchen,saltshaker.png,scaled,1,zi,kitchen,k5_zi.png,0,0,zo,bathroom,b2_zo.png,m,1,845,67744,257377
566260,OSS,v6,1263,616,1280,720,12-14-2022,16-3-42,2,14,large,laundromat,shirt.png,misscaled,0,zi,classroom,c4_zi.png,1,1,zi,classroom,c2_zi.png,c,1,1054,67744,257377
566260,OSS,v6,1263,616,1280,720,12-14-2022,16-3-42,2,15,small,bathroom,lipstick.png,misscaled,1,zo,bathroom,b5_zo.png,1,0,zo,laundromat,l4_zo.png,m,1,762,67744,257377
497750,OSS,v6,1920,969,1920,1080,12-14-2022,12-51-52,1,0,large,bathroom,loofah.png,scaled,0,zo,classroom,c3_zo.png,0,0,zi,kitchen,k3_zi.png,m,1,601,58938,157273
497750,OSS,v6,1920,969,1920,1080,12-14-2022,12-51-52,1,1,small,bathroom,lipstick.png,scaled,1,zi,bathroom,b1_zi.png,1,1,zi,bathroom,b4_zi.png,c,1,665,58938,157273
497750,OSS,v6,1920,969,1920,1080,12-14-2022,12-51-52,1,2,large,laundromat,detergent.png,misscaled,0,zi,classroom,c0_zi.png,1,1,zi,classroom,c4_zi.png,c,1,672,58938,157273
497750,OSS,v6,1920,969,1920,1080,12-14-2022,12-51-52,1,3,large,bathroom,hairdryer.png,misscaled,0,zi,kitchen,k4_zi.png,1,0,zi,classroom,c2_zi.png,m,1,733,58938,157273
497750,OSS,v6,1920,969,1920,1080,12-14-2022,12-51-52,1,4,large,classroom,computer.png,scaled,1,zo,classroom,c4_zo.png,0,0,zi,kitchen,k0_zi.png,m,1,563,58938,157273
497750,OSS,v6,1920,969,1920,1080,12-14-2022,12-51-52,1,5,small,classroom,binderclip.png,scaled,0,zi,bathroom,b2_zi.png,1,0,zi,laundromat,l2_zi.png,m,1,796,58938,157273
497750,OSS,v6,1920,969,1920,1080,12-14-2022,12-51-52,1,6,small,classroom,paperclip.png,misscaled,0,zo,laundromat,l1_zo.png,0,1,zi,laundromat,l3_zi.png,c,1,667,58938,157273
497750,OSS,v6,1920,969,1920,1080,12-14-2022,12-51-52,1,7,large,laundromat,shirt.png,scaled,1,zo,laundromat,l0_zo.png,0,0,zi,bathroom,b0_zi.png,m,1,665,58938,157273
497750,OSS,v6,1920,969,1920,1080,12-14-2022,12-51-52,1,8,large,laundromat,shorts.png,misscaled,1,zi,laundromat,l1_zi.png,0,1,zo,laundromat,l4_zo.png,c,1,611,58938,157273
497750,OSS,v6,1920,969,1920,1080,12-14-2022,12-51-52,1,9,small,classroom,eraser.png,misscaled,1,zo,classroom,c5_zo.png,1,1,zo,classroom,c1_zo.png,c,1,558,58938,157273
497750,OSS,v6,1920,969,1920,1080,12-14-2022,12-51-52,1,10,small,kitchen,saltshaker.png,misscaled,0,zo,classroom,c0_zo.png,1,1,zo,classroom,c2_zo.png,m,0,718,58938,157273
497750,OSS,v6,1920,969,1920,1080,12-14-2022,12-51-52,1,11,small,laundromat,coins.png,scaled,1,zi,laundromat,l0_zi.png,0,1,zo,laundromat,l5_zo.png,c,1,579,58938,157273
497750,OSS,v6,1920,969,1920,1080,12-14-2022,12-51-52,1,12,small,bathroom,floss.png,misscaled,1,zo,bathroom,b1_zo.png,0,1,zi,bathroom,b5_zi.png,c,1,552,58938,157273
497750,OSS,v6,1920,969,1920,1080,12-14-2022,12-51-52,1,13,large,classroom,notebook.png,scaled,0,zo,kitchen,k3_zo.png,1,0,zo,laundromat,l3_zo.png,m,1,622,58938,157273
497750,OSS,v6,1920,969,1920,1080,12-14-2022,12-51-52,1,14,large,kitchen,toaster.png,misscaled,1,zi,kitchen,k2_zi.png,0,0,zo,laundromat,l2_zo.png,m,1,540,58938,157273
497750,OSS,v6,1920,969,1920,1080,12-14-2022,12-51-52,1,15,small,laundromat,tidepod.png,scaled,0,zi,kitchen,k5_zi.png,1,0,zi,bathroom,b3_zi.png,m,1,676,58938,157273
810980,OSS,v6,1536,746,1536,864,12-14-2022,15-47-14,1,0,small,classroom,binderclip.png,scaled,0,zi,kitchen,k1_zi.png,0,0,zo,bathroom,b3_zo.png,m,1,1275,63413,146192
810980,OSS,v6,1536,746,1536,864,12-14-2022,15-47-14,1,1,large,bathroom,tissuebox.png,misscaled,1,zi,bathroom,b5_zi.png,0,0,zo,laundromat,l2_zo.png,m,1,678,63413,146192
810980,OSS,v6,1536,746,1536,864,12-14-2022,15-47-14,1,2,small,classroom,paperclip.png,misscaled,0,zo,laundromat,l5_zo.png,1,0,zo,kitchen,k5_zo.png,m,1,1036,63413,146192
810980,OSS,v6,1536,746,1536,864,12-14-2022,15-47-14,1,3,large,classroom,powerstrip.png,misscaled,0,zi,kitchen,k0_zi.png,0,0,zo,bathroom,b0_zo.png,m,1,1222,63413,146192
810980,OSS,v6,1536,746,1536,864,12-14-2022,15-47-14,1,4,small,classroom,eraser.png,scaled,1,zi,classroom,c2_zi.png,1,1,zi,classroom,c5_zi.png,c,1,1399,63413,146192
810980,OSS,v6,1536,746,1536,864,12-14-2022,15-47-14,1,5,large,bathroom,hairdryer.png,scaled,1,zo,bathroom,b5_zo.png,1,1,zo,bathroom,b2_zo.png,m,0,1193,63413,146192
810980,OSS,v6,1536,746,1536,864,12-14-2022,15-47-14,1,6,small,kitchen,spoon.png,misscaled,1,zo,kitchen,k0_zo.png,0,0,zi,laundromat,l3_zi.png,m,1,811,63413,146192
810980,OSS,v6,1536,746,1536,864,12-14-2022,15-47-14,1,7,large,kitchen,kettle.png,scaled,0,zo,laundromat,l0_zo.png,1,0,zo,classroom,c0_zo.png,m,1,1308,63413,146192
810980,OSS,v6,1536,746,1536,864,12-14-2022,15-47-14,1,8,small,laundromat,socks.png,misscaled,0,zo,classroom,c4_zo.png,1,0,zo,bathroom,b4_zo.png,m,1,526,63413,146192
810980,OSS,v6,1536,746,1536,864,12-14-2022,15-47-14,1,9,large,laundromat,shirt.png,misscaled,0,zi,kitchen,k5_zi.png,0,1,zo,kitchen,k1_zo.png,c,1,1185,63413,146192
810980,OSS,v6,1536,746,1536,864,12-14-2022,15-47-14,1,10,small,kitchen,saltshaker.png,scaled,0,zi,laundromat,l2_zi.png,1,1,zi,laundromat,l0_zi.png,c,1,886,63413,146192
810980,OSS,v6,1536,746,1536,864,12-14-2022,15-47-14,1,11,large,classroom,notebook.png,scaled,1,zo,classroom,c5_zo.png,0,0,zi,bathroom,b3_zi.png,m,1,546,63413,146192
810980,OSS,v6,1536,746,1536,864,12-14-2022,15-47-14,1,12,small,laundromat,coins.png,scaled,1,zi,laundromat,l1_zi.png,0,1,zo,laundromat,l3_zo.png,c,1,905,63413,146192
810980,OSS,v6,1536,746,1536,864,12-14-2022,15-47-14,1,13,large,laundromat,detergent.png,scaled,0,zo,classroom,c3_zo.png,1,0,zo,kitchen,k2_zo.png,m,1,678,63413,146192
810980,OSS,v6,1536,746,1536,864,12-14-2022,15-47-14,1,14,large,kitchen,toaster.png,misscaled,1,zi,kitchen,k3_zi.png,0,1,zo,kitchen,k4_zo.png,c,1,521,63413,146192
810980,OSS,v6,1536,746,1536,864,12-14-2022,15-47-14,1,15,small,laundromat,tidepod.png,misscaled,1,zo,laundromat,l1_zo.png,1,1,zo,laundromat,l4_zo.png,m,0,531,63413,146192
739316,OSS,v6,1920,947,1920,1080,12-14-2022,16-18-50,2,0,large,classroom,powerstrip.png,scaled,1,zo,classroom,c5_zo.png,1,1,zo,classroom,c2_zo.png,c,1,743,65073,229874
739316,OSS,v6,1920,947,1920,1080,12-14-2022,16-18-50,2,1,large,bathroom,tissuebox.png,scaled,0,zo,kitchen,k4_zo.png,0,0,zi,laundromat,l0_zi.png,m,1,1597,65073,229874
739316,OSS,v6,1920,947,1920,1080,12-14-2022,16-18-50,2,2,large,bathroom,loofah.png,misscaled,0,zi,classroom,c3_zi.png,0,1,zo,classroom,c0_zo.png,c,1,553,65073,229874
739316,OSS,v6,1920,947,1920,1080,12-14-2022,16-18-50,2,3,small,classroom,binderclip.png,misscaled,1,zo,classroom,c4_zo.png,0,0,zi,kitchen,k0_zi.png,m,1,786,65073,229874
739316,OSS,v6,1920,947,1920,1080,12-14-2022,16-18-50,2,4,small,laundromat,coins.png,scaled,1,zi,laundromat,l2_zi.png,0,0,zo,kitchen,k5_zo.png,m,1,1181,65073,229874
739316,OSS,v6,1920,947,1920,1080,12-14-2022,16-18-50,2,5,small,classroom,eraser.png,misscaled,0,zo,laundromat,l2_zo.png,0,1,zi,laundromat,l5_zi.png,c,1,619,65073,229874
739316,OSS,v6,1920,947,1920,1080,12-14-2022,16-18-50,2,6,small,laundromat,tidepod.png,scaled,0,zi,bathroom,b0_zi.png,0,1,zo,bathroom,b3_zo.png,m,0,1232,65073,229874
739316,OSS,v6,1920,947,1920,1080,12-14-2022,16-18-50,2,7,small,kitchen,sponge.png,misscaled,0,zo,classroom,c1_zo.png,0,0,zi,laundromat,l4_zi.png,m,1,718,65073,229874
739316,OSS,v6,1920,947,1920,1080,12-14-2022,16-18-50,2,8,small,kitchen,saltshaker.png,misscaled,1,zo,kitchen,k1_zo.png,1,0,zo,laundromat,l4_zo.png,m,1,973,65073,229874
739316,OSS,v6,1920,947,1920,1080,12-14-2022,16-18-50,2,9,small,classroom,paperclip.png,scaled,1,zi,classroom,c5_zi.png,1,1,zi,classroom,c1_zi.png,c,1,725,65073,229874
739316,OSS,v6,1920,947,1920,1080,12-14-2022,16-18-50,2,10,large,classroom,notebook.png,scaled,1,zo,classroom,c3_zo.png,0,1,zi,classroom,c4_zi.png,c,1,814,65073,229874
739316,OSS,v6,1920,947,1920,1080,12-14-2022,16-18-50,2,11,small,laundromat,socks.png,scaled,0,zi,bathroom,b3_zi.png,1,0,zi,kitchen,k2_zi.png,m,1,1153,65073,229874
739316,OSS,v6,1920,947,1920,1080,12-14-2022,16-18-50,2,12,large,bathroom,hairdryer.png,misscaled,1,zi,bathroom,b1_zi.png,0,0,zo,kitchen,k3_zo.png,c,0,1260,65073,229874
739316,OSS,v6,1920,947,1920,1080,12-14-2022,16-18-50,2,13,large,laundromat,detergent.png,misscaled,1,zi,laundromat,l3_zi.png,1,0,zi,kitchen,k4_zi.png,c,0,1134,65073,229874
739316,OSS,v6,1920,947,1920,1080,12-14-2022,16-18-50,2,14,large,laundromat,shorts.png,misscaled,0,zi,classroom,c2_zi.png,1,0,zi,kitchen,k1_zi.png,m,1,925,65073,229874
739316,OSS,v6,1920,947,1920,1080,12-14-2022,16-18-50,2,15,large,classroom,computer.png,scaled,0,zo,bathroom,b4_zo.png,1,0,zo,laundromat,l5_zo.png,m,1,1012,65073,229874
721004,OSS,v6,1920,977,1920,1080,12-14-2022,13-12-37,3,0,large,laundromat,detergent.png,misscaled,0,zi,bathroom,b5_zi.png,0,0,zo,kitchen,k3_zo.png,m,1,706,62099,219244
721004,OSS,v6,1920,977,1920,1080,12-14-2022,13-12-37,3,1,large,classroom,computer.png,scaled,0,zo,laundromat,l5_zo.png,0,0,zi,kitchen,k3_zi.png,m,1,621,62099,219244
721004,OSS,v6,1920,977,1920,1080,12-14-2022,13-12-37,3,2,small,laundromat,tidepod.png,scaled,1,zi,laundromat,l2_zi.png,1,1,zi,laundromat,l4_zi.png,m,0,549,62099,219244
721004,OSS,v6,1920,977,1920,1080,12-14-2022,13-12-37,3,3,small,kitchen,sponge.png,misscaled,1,zo,kitchen,k1_zo.png,0,1,zi,kitchen,k0_zi.png,c,1,828,62099,219244
721004,OSS,v6,1920,977,1920,1080,12-14-2022,13-12-37,3,4,small,laundromat,socks.png,scaled,0,zi,classroom,c4_zi.png,1,0,zi,bathroom,b4_zi.png,m,1,748,62099,219244
721004,OSS,v6,1920,977,1920,1080,12-14-2022,13-12-37,3,5,large,laundromat,shorts.png,misscaled,1,zi,laundromat,l3_zi.png,1,1,zi,laundromat,l5_zi.png,c,1,518,62099,219244
721004,OSS,v6,1920,977,1920,1080,12-14-2022,13-12-37,3,6,small,bathroom,lipstick.png,misscaled,0,zo,classroom,c2_zo.png,1,0,zo,kitchen,k2_zo.png,m,1,748,62099,219244
721004,OSS,v6,1920,977,1920,1080,12-14-2022,13-12-37,3,7,large,classroom,powerstrip.png,misscaled,0,zi,laundromat,l0_zi.png,0,0,zo,bathroom,b0_zo.png,c,0,877,62099,219244
721004,OSS,v6,1920,977,1920,1080,12-14-2022,13-12-37,3,8,large,kitchen,pot.png,scaled,1,zo,kitchen,k4_zo.png,0,1,zi,kitchen,k5_zi.png,c,1,772,62099,219244
721004,OSS,v6,1920,977,1920,1080,12-14-2022,13-12-37,3,9,small,bathroom,nailclipper.png,misscaled,1,zo,bathroom,b2_zo.png,1,0,zo,classroom,c1_zo.png,c,0,789,62099,219244
721004,OSS,v6,1920,977,1920,1080,12-14-2022,13-12-37,3,10,small,classroom,eraser.png,misscaled,0,zo,bathroom,b4_zo.png,0,1,zi,bathroom,b0_zi.png,c,1,701,62099,219244
721004,OSS,v6,1920,977,1920,1080,12-14-2022,13-12-37,3,11,small,classroom,binderclip.png,scaled,0,zi,laundromat,l1_zi.png,0,0,zo,bathroom,b3_zo.png,c,0,965,62099,219244
721004,OSS,v6,1920,977,1920,1080,12-14-2022,13-12-37,3,12,large,classroom,notebook.png,misscaled,1,zi,classroom,c0_zi.png,0,0,zo,laundromat,l2_zo.png,m,1,933,62099,219244
721004,OSS,v6,1920,977,1920,1080,12-14-2022,13-12-37,3,13,large,laundromat,shirt.png,scaled,1,zo,laundromat,l0_zo.png,0,0,zi,classroom,c1_zi.png,m,1,940,62099,219244
721004,OSS,v6,1920,977,1920,1080,12-14-2022,13-12-37,3,14,small,classroom,paperclip.png,scaled,1,zi,classroom,c2_zi.png,0,0,zo,laundromat,l4_zo.png,m,1,573,62099,219244
721004,OSS,v6,1920,977,1920,1080,12-14-2022,13-12-37,3,15,large,bathroom,loofah.png,scaled,0,zo,kitchen,k5_zo.png,0,1,zi,kitchen,k1_zi.png,c,1,756,62099,219244
388173,OSS,v6,1920,946,1920,1080,12-14-2022,14-55-3,3,0,small,bathroom,floss.png,scaled,0,zi,kitchen,k4_zi.png,1,0,zi,laundromat,l0_zi.png,none,0,2001,72715,288310
388173,OSS,v6,1920,946,1920,1080,12-14-2022,14-55-3,3,1,large,bathroom,loofah.png,misscaled,0,zi,classroom,c2_zi.png,1,1,zi,classroom,c3_zi.png,c,1,1744,72715,288310
388173,OSS,v6,1920,946,1920,1080,12-14-2022,14-55-3,3,2,small,kitchen,sponge.png,misscaled,1,zo,kitchen,k5_zo.png,1,0,zo,classroom,c3_zo.png,none,0,2001,72715,288310
388173,OSS,v6,1920,946,1920,1080,12-14-2022,14-55-3,3,3,small,laundromat,coins.png,misscaled,1,zo,laundromat,l3_zo.png,0,0,zi,kitchen,k3_zi.png,m,1,1844,72715,288310
388173,OSS,v6,1920,946,1920,1080,12-14-2022,14-55-3,3,4,large,bathroom,hairdryer.png,misscaled,1,zi,bathroom,b0_zi.png,0,1,zo,bathroom,b5_zo.png,c,1,1745,72715,288310
388173,OSS,v6,1920,946,1920,1080,12-14-2022,14-55-3,3,5,large,bathroom,tissuebox.png,scaled,1,zo,bathroom,b2_zo.png,1,0,zo,laundromat,l1_zo.png,none,0,2000,72715,288310
388173,OSS,v6,1920,946,1920,1080,12-14-2022,14-55-3,3,6,small,laundromat,socks.png,misscaled,0,zo,classroom,c5_zo.png,1,1,zo,classroom,c4_zo.png,c,1,1030,72715,288310
388173,OSS,v6,1920,946,1920,1080,12-14-2022,14-55-3,3,7,large,classroom,notebook.png,misscaled,1,zi,classroom,c1_zi.png,1,1,zi,classroom,c4_zi.png,c,1,925,72715,288310
388173,OSS,v6,1920,946,1920,1080,12-14-2022,14-55-3,3,8,large,kitchen,kettle.png,scaled,1,zo,kitchen,k1_zo.png,0,1,zi,kitchen,k2_zi.png,c,1,1539,72715,288310
388173,OSS,v6,1920,946,1920,1080,12-14-2022,14-55-3,3,9,small,classroom,paperclip.png,misscaled,0,zo,laundromat,l5_zo.png,0,1,zi,laundromat,l2_zi.png,c,1,1111,72715,288310
388173,OSS,v6,1920,946,1920,1080,12-14-2022,14-55-3,3,10,large,kitchen,toaster.png,scaled,0,zo,laundromat,l2_zo.png,1,1,zo,laundromat,l4_zo.png,c,1,1190,72715,288310
388173,OSS,v6,1920,946,1920,1080,12-14-2022,14-55-3,3,11,large,laundromat,shirt.png,scaled,0,zo,classroom,c2_zo.png,0,1,zi,classroom,c5_zi.png,c,1,1039,72715,288310
388173,OSS,v6,1920,946,1920,1080,12-14-2022,14-55-3,3,12,small,bathroom,lipstick.png,scaled,0,zi,laundromat,l1_zi.png,0,1,zo,laundromat,l0_zo.png,c,1,1229,72715,288310
388173,OSS,v6,1920,946,1920,1080,12-14-2022,14-55-3,3,13,small,classroom,eraser.png,scaled,1,zi,classroom,c0_zi.png,1,0,zi,bathroom,b1_zi.png,m,1,1206,72715,288310
388173,OSS,v6,1920,946,1920,1080,12-14-2022,14-55-3,3,14,large,laundromat,detergent.png,misscaled,0,zi,bathroom,b3_zi.png,0,0,zo,classroom,c0_zo.png,m,1,1483,72715,288310
388173,OSS,v6,1920,946,1920,1080,12-14-2022,14-55-3,3,15,small,laundromat,tidepod.png,scaled,1,zi,laundromat,l5_zi.png,1,1,zi,laundromat,l4_zi.png,c,1,1002,72715,288310
507721,OSS,v6,1536,722,1536,864,12-14-2022,12-38-23,1,0,small,classroom,paperclip.png,scaled,1,zi,classroom,c2_zi.png,1,0,zi,bathroom,b4_zi.png,m,1,936,61755,125128
507721,OSS,v6,1536,722,1536,864,12-14-2022,12-38-23,1,1,small,laundromat,coins.png,misscaled,1,zo,laundromat,l0_zo.png,0,0,zi,bathroom,b0_zi.png,m,1,969,61755,125128
507721,OSS,v6,1536,722,1536,864,12-14-2022,12-38-23,1,2,large,laundromat,detergent.png,scaled,0,zo,classroom,c3_zo.png,1,0,zo,kitchen,k0_zo.png,m,1,654,61755,125128
507721,OSS,v6,1536,722,1536,864,12-14-2022,12-38-23,1,3,small,kitchen,saltshaker.png,scaled,0,zi,bathroom,b5_zi.png,1,1,zi,bathroom,b1_zi.png,c,1,825,61755,125128
507721,OSS,v6,1536,722,1536,864,12-14-2022,12-38-23,1,4,large,classroom,notebook.png,scaled,0,zo,bathroom,b5_zo.png,0,1,zi,bathroom,b2_zi.png,c,1,831,61755,125128
507721,OSS,v6,1536,722,1536,864,12-14-2022,12-38-23,1,5,small,bathroom,floss.png,misscaled,1,zo,bathroom,b2_zo.png,0,0,zi,laundromat,l1_zi.png,m,1,864,61755,125128
507721,OSS,v6,1536,722,1536,864,12-14-2022,12-38-23,1,6,small,bathroom,lipstick.png,misscaled,0,zo,classroom,c2_zo.png,0,1,zi,classroom,c5_zi.png,c,1,920,61755,125128
507721,OSS,v6,1536,722,1536,864,12-14-2022,12-38-23,1,7,large,classroom,computer.png,misscaled,0,zi,bathroom,b3_zi.png,0,1,zo,bathroom,b4_zo.png,c,1,762,61755,125128
507721,OSS,v6,1536,722,1536,864,12-14-2022,12-38-23,1,8,large,laundromat,shirt.png,misscaled,1,zi,laundromat,l3_zi.png,0,1,zo,laundromat,l2_zo.png,c,1,685,61755,125128
507721,OSS,v6,1536,722,1536,864,12-14-2022,12-38-23,1,9,small,laundromat,tidepod.png,scaled,1,zi,laundromat,l0_zi.png,0,0,zo,bathroom,b3_zo.png,c,0,913,61755,125128
507721,OSS,v6,1536,722,1536,864,12-14-2022,12-38-23,1,10,small,bathroom,nailclipper.png,scaled,0,zi,kitchen,k3_zi.png,0,0,zo,laundromat,l4_zo.png,m,1,799,61755,125128
507721,OSS,v6,1536,722,1536,864,12-14-2022,12-38-23,1,11,large,classroom,powerstrip.png,scaled,1,zo,classroom,c0_zo.png,1,0,zo,kitchen,k4_zo.png,m,1,713,61755,125128
507721,OSS,v6,1536,722,1536,864,12-14-2022,12-38-23,1,12,large,kitchen,pot.png,scaled,1,zo,kitchen,k2_zo.png,1,0,zo,laundromat,l5_zo.png,m,1,776,61755,125128
507721,OSS,v6,1536,722,1536,864,12-14-2022,12-38-23,1,13,large,bathroom,loofah.png,misscaled,0,zi,classroom,c0_zi.png,1,0,zi,laundromat,l5_zi.png,m,1,672,61755,125128
507721,OSS,v6,1536,722,1536,864,12-14-2022,12-38-23,1,14,small,classroom,binderclip.png,misscaled,0,zo,laundromat,l3_zo.png,1,0,zo,bathroom,b0_zo.png,m,1,726,61755,125128
507721,OSS,v6,1536,722,1536,864,12-14-2022,12-38-23,1,15,large,kitchen,toaster.png,misscaled,1,zi,kitchen,k1_zi.png,1,1,zi,kitchen,k0_zi.png,c,1,988,61755,125128
870192,OSS,v6,1920,969,1920,1080,12-14-2022,15-6-35,1,0,small,classroom,paperclip.png,scaled,1,zi,classroom,c3_zi.png,1,0,zi,laundromat,l2_zi.png,m,1,720,59382,125541
870192,OSS,v6,1920,969,1920,1080,12-14-2022,15-6-35,1,1,large,laundromat,shorts.png,misscaled,0,zi,kitchen,k4_zi.png,1,0,zi,classroom,c1_zi.png,m,1,1148,59382,125541
870192,OSS,v6,1920,969,1920,1080,12-14-2022,15-6-35,1,2,small,kitchen,spoon.png,misscaled,1,zo,kitchen,k0_zo.png,0,0,zi,classroom,c4_zi.png,m,1,773,59382,125541
870192,OSS,v6,1920,969,1920,1080,12-14-2022,15-6-35,1,3,large,classroom,notebook.png,misscaled,0,zi,laundromat,l5_zi.png,0,1,zo,laundromat,l4_zo.png,c,1,699,59382,125541
870192,OSS,v6,1920,969,1920,1080,12-14-2022,15-6-35,1,4,small,classroom,binderclip.png,misscaled,0,zo,bathroom,b1_zo.png,0,0,zi,laundromat,l3_zi.png,m,1,880,59382,125541
870192,OSS,v6,1920,969,1920,1080,12-14-2022,15-6-35,1,5,large,classroom,powerstrip.png,scaled,0,zo,laundromat,l5_zo.png,0,0,zi,bathroom,b1_zi.png,m,1,831,59382,125541
870192,OSS,v6,1920,969,1920,1080,12-14-2022,15-6-35,1,6,large,kitchen,toaster.png,scaled,0,zo,classroom,c0_zo.png,1,0,zo,laundromat,l1_zo.png,m,1,908,59382,125541
870192,OSS,v6,1920,969,1920,1080,12-14-2022,15-6-35,1,7,small,bathroom,lipstick.png,scaled,1,zi,bathroom,b2_zi.png,1,1,zi,bathroom,b4_zi.png,c,1,594,59382,125541
870192,OSS,v6,1920,969,1920,1080,12-14-2022,15-6-35,1,8,small,bathroom,nailclipper.png,misscaled,1,zo,bathroom,b4_zo.png,1,1,zo,bathroom,b5_zo.png,c,1,556,59382,125541
870192,OSS,v6,1920,969,1920,1080,12-14-2022,15-6-35,1,9,large,bathroom,tissuebox.png,misscaled,1,zi,bathroom,b5_zi.png,1,0,zi,classroom,c0_zi.png,m,1,648,59382,125541
870192,OSS,v6,1920,969,1920,1080,12-14-2022,15-6-35,1,10,small,kitchen,saltshaker.png,scaled,0,zi,bathroom,b3_zi.png,0,0,zo,classroom,c2_zo.png,m,1,583,59382,125541
870192,OSS,v6,1920,969,1920,1080,12-14-2022,15-6-35,1,11,large,kitchen,kettle.png,scaled,1,zo,kitchen,k4_zo.png,0,0,zi,classroom,c2_zi.png,m,1,547,59382,125541
870192,OSS,v6,1920,969,1920,1080,12-14-2022,15-6-35,1,12,small,bathroom,floss.png,scaled,0,zi,kitchen,k2_zi.png,1,1,zi,kitchen,k5_zi.png,c,1,568,59382,125541
870192,OSS,v6,1920,969,1920,1080,12-14-2022,15-6-35,1,13,large,laundromat,detergent.png,misscaled,1,zi,laundromat,l0_zi.png,1,1,zi,laundromat,l1_zi.png,c,1,546,59382,125541
870192,OSS,v6,1920,969,1920,1080,12-14-2022,15-6-35,1,14,small,kitchen,sponge.png,misscaled,0,zo,bathroom,b0_zo.png,1,0,zo,laundromat,l0_zo.png,m,1,644,59382,125541
870192,OSS,v6,1920,969,1920,1080,12-14-2022,15-6-35,1,15,large,kitchen,pot.png,scaled,1,zo,kitchen,k3_zo.png,1,1,zo,kitchen,k1_zo.png,c,1,528,59382,125541
180697,OSS,v6,1417,869,1920,1080,12-14-2022,15-59-56,1,0,large,laundromat,shorts.png,scaled,0,zo,bathroom,b4_zo.png,0,1,zi,bathroom,b2_zi.png,c,1,1605,65754,203129
180697,OSS,v6,1417,869,1920,1080,12-14-2022,15-59-56,1,1,large,classroom,notebook.png,scaled,0,zo,bathroom,b3_zo.png,1,0,zo,kitchen,k4_zo.png,m,1,1095,65754,203129
180697,OSS,v6,1417,869,1920,1080,12-14-2022,15-59-56,1,2,large,kitchen,pot.png,misscaled,0,zi,classroom,c3_zi.png,0,0,zo,bathroom,b1_zo.png,m,1,1350,65754,203129
180697,OSS,v6,1417,869,1920,1080,12-14-2022,15-59-56,1,3,small,bathroom,lipstick.png,misscaled,1,zo,bathroom,b0_zo.png,0,0,zi,laundromat,l3_zi.png,m,1,946,65754,203129
180697,OSS,v6,1417,869,1920,1080,12-14-2022,15-59-56,1,4,large,kitchen,toaster.png,scaled,1,zo,kitchen,k0_zo.png,1,0,zo,laundromat,l2_zo.png,m,1,1026,65754,203129
180697,OSS,v6,1417,869,1920,1080,12-14-2022,15-59-56,1,5,small,bathroom,floss.png,misscaled,0,zo,classroom,c2_zo.png,1,1,zo,classroom,c4_zo.png,c,1,1051,65754,203129
180697,OSS,v6,1417,869,1920,1080,12-14-2022,15-59-56,1,6,small,classroom,eraser.png,misscaled,1,zo,classroom,c5_zo.png,0,0,zi,bathroom,b3_zi.png,m,1,901,65754,203129
180697,OSS,v6,1417,869,1920,1080,12-14-2022,15-59-56,1,7,large,classroom,computer.png,misscaled,1,zi,classroom,c1_zi.png,1,0,zi,bathroom,b4_zi.png,m,1,855,65754,203129
180697,OSS,v6,1417,869,1920,1080,12-14-2022,15-59-56,1,8,small,kitchen,spoon.png,scaled,1,zi,kitchen,k1_zi.png,0,0,zo,laundromat,l4_zo.png,m,1,831,65754,203129
180697,OSS,v6,1417,869,1920,1080,12-14-2022,15-59-56,1,9,large,kitchen,kettle.png,misscaled,0,zi,classroom,c4_zi.png,0,1,zo,classroom,c1_zo.png,m,0,920,65754,203129
180697,OSS,v6,1417,869,1920,1080,12-14-2022,15-59-56,1,10,small,bathroom,nailclipper.png,scaled,1,zi,bathroom,b1_zi.png,1,0,zi,laundromat,l0_zi.png,m,1,962,65754,203129
180697,OSS,v6,1417,869,1920,1080,12-14-2022,15-59-56,1,11,large,bathroom,tissuebox.png,scaled,1,zo,bathroom,b2_zo.png,1,0,zo,laundromat,l5_zo.png,m,1,831,65754,203129
180697,OSS,v6,1417,869,1920,1080,12-14-2022,15-59-56,1,12,large,laundromat,detergent.png,misscaled,1,zi,laundromat,l4_zi.png,1,0,zi,classroom,c5_zi.png,m,1,975,65754,203129
180697,OSS,v6,1417,869,1920,1080,12-14-2022,15-59-56,1,13,small,classroom,binderclip.png,scaled,0,zi,kitchen,k3_zi.png,1,1,zi,kitchen,k0_zi.png,c,1,1142,65754,203129
180697,OSS,v6,1417,869,1920,1080,12-14-2022,15-59-56,1,14,small,laundromat,coins.png,scaled,0,zi,classroom,c0_zi.png,1,1,zi,classroom,c2_zi.png,m,0,1090,65754,203129
180697,OSS,v6,1417,869,1920,1080,12-14-2022,15-59-56,1,15,small,kitchen,saltshaker.png,misscaled,0,zo,classroom,c0_zo.png,1,0,zo,bathroom,b5_zo.png,m,1,1038,65754,203129
482948,OSS,v6,1881,888,1920,1080,12-14-2022,15-13-46,1,0,small,classroom,paperclip.png,scaled,0,zi,kitchen,k2_zi.png,1,0,zi,laundromat,l1_zi.png,c,0,1120,60500,133861
482948,OSS,v6,1881,888,1920,1080,12-14-2022,15-13-46,1,1,small,bathroom,lipstick.png,misscaled,1,zo,bathroom,b4_zo.png,1,0,zo,kitchen,k4_zo.png,c,0,795,60500,133861
482948,OSS,v6,1881,888,1920,1080,12-14-2022,15-13-46,1,2,small,laundromat,tidepod.png,scaled,1,zi,laundromat,l4_zi.png,0,0,zo,classroom,c5_zo.png,m,1,758,60500,133861
482948,OSS,v6,1881,888,1920,1080,12-14-2022,15-13-46,1,3,small,laundromat,socks.png,scaled,1,zi,laundromat,l2_zi.png,0,1,zo,laundromat,l4_zo.png,c,1,698,60500,133861
482948,OSS,v6,1881,888,1920,1080,12-14-2022,15-13-46,1,4,large,kitchen,kettle.png,scaled,0,zo,classroom,c4_zo.png,0,1,zi,classroom,c0_zi.png,c,1,813,60500,133861
482948,OSS,v6,1881,888,1920,1080,12-14-2022,15-13-46,1,5,small,kitchen,sponge.png,scaled,0,zi,bathroom,b5_zi.png,0,1,zo,bathroom,b0_zo.png,c,1,637,60500,133861
482948,OSS,v6,1881,888,1920,1080,12-14-2022,15-13-46,1,6,large,kitchen,pot.png,misscaled,0,zi,bathroom,b0_zi.png,1,1,zi,bathroom,b3_zi.png,c,1,607,60500,133861
482948,OSS,v6,1881,888,1920,1080,12-14-2022,15-13-46,1,7,large,classroom,computer.png,misscaled,0,zi,kitchen,k0_zi.png,1,0,zi,laundromat,l0_zi.png,m,1,766,60500,133861
482948,OSS,v6,1881,888,1920,1080,12-14-2022,15-13-46,1,8,small,bathroom,nailclipper.png,misscaled,0,zo,classroom,c2_zo.png,1,1,zo,classroom,c0_zo.png,c,1,542,60500,133861
482948,OSS,v6,1881,888,1920,1080,12-14-2022,15-13-46,1,9,large,bathroom,hairdryer.png,scaled,1,zo,bathroom,b2_zo.png,0,0,zi,classroom,c5_zi.png,m,1,693,60500,133861
482948,OSS,v6,1881,888,1920,1080,12-14-2022,15-13-46,1,10,large,classroom,notebook.png,misscaled,1,zi,classroom,c1_zi.png,1,1,zi,classroom,c3_zi.png,c,1,685,60500,133861
482948,OSS,v6,1881,888,1920,1080,12-14-2022,15-13-46,1,11,small,classroom,binderclip.png,misscaled,1,zo,classroom,c1_zo.png,1,0,zo,bathroom,b5_zo.png,m,1,746,60500,133861
482948,OSS,v6,1881,888,1920,1080,12-14-2022,15-13-46,1,12,large,laundromat,detergent.png,scaled,1,zo,laundromat,l1_zo.png,0,1,zi,laundromat,l5_zi.png,c,1,526,60500,133861
482948,OSS,v6,1881,888,1920,1080,12-14-2022,15-13-46,1,13,large,bathroom,loofah.png,scaled,0,zo,kitchen,k0_zo.png,0,0,zi,laundromat,l3_zi.png,m,1,651,60500,133861
482948,OSS,v6,1881,888,1920,1080,12-14-2022,15-13-46,1,14,small,kitchen,spoon.png,misscaled,0,zo,bathroom,b1_zo.png,1,0,zo,classroom,c3_zo.png,m,1,659,60500,133861
482948,OSS,v6,1881,888,1920,1080,12-14-2022,15-13-46,1,15,large,kitchen,toaster.png,misscaled,1,zi,kitchen,k4_zi.png,0,1,zo,kitchen,k1_zo.png,c,1,705,60500,133861
431576,OSS,v6,1970,1006,1970,1108,12-14-2022,16-18-26,1,0,small,bathroom,nailclipper.png,misscaled,0,zo,kitchen,k5_zo.png,1,1,zo,kitchen,k2_zo.png,c,1,971,61927,167359
431576,OSS,v6,1970,1006,1970,1108,12-14-2022,16-18-26,1,1,large,bathroom,loofah.png,scaled,1,zo,bathroom,b5_zo.png,1,1,zo,bathroom,b4_zo.png,c,1,650,61927,167359
431576,OSS,v6,1970,1006,1970,1108,12-14-2022,16-18-26,1,2,small,classroom,paperclip.png,scaled,1,zi,classroom,c1_zi.png,0,0,zo,laundromat,l2_zo.png,m,1,1125,61927,167359
431576,OSS,v6,1970,1006,1970,1108,12-14-2022,16-18-26,1,3,small,laundromat,coins.png,scaled,0,zi,kitchen,k0_zi.png,1,0,zi,classroom,c3_zi.png,m,1,1051,61927,167359
431576,OSS,v6,1970,1006,1970,1108,12-14-2022,16-18-26,1,4,large,kitchen,kettle.png,scaled,0,zo,bathroom,b3_zo.png,0,1,zi,bathroom,b5_zi.png,c,1,1324,61927,167359
431576,OSS,v6,1970,1006,1970,1108,12-14-2022,16-18-26,1,5,large,classroom,notebook.png,misscaled,0,zi,kitchen,k5_zi.png,0,0,zo,laundromat,l1_zo.png,m,1,825,61927,167359
431576,OSS,v6,1970,1006,1970,1108,12-14-2022,16-18-26,1,6,large,classroom,powerstrip.png,misscaled,1,zi,classroom,c0_zi.png,1,1,zi,classroom,c4_zi.png,c,1,782,61927,167359
431576,OSS,v6,1970,1006,1970,1108,12-14-2022,16-18-26,1,7,small,kitchen,saltshaker.png,misscaled,0,zo,classroom,c3_zo.png,0,0,zi,laundromat,l0_zi.png,m,1,631,61927,167359
431576,OSS,v6,1970,1006,1970,1108,12-14-2022,16-18-26,1,8,small,laundromat,tidepod.png,scaled,1,zi,laundromat,l2_zi.png,1,0,zi,classroom,c5_zi.png,m,1,701,61927,167359
431576,OSS,v6,1970,1006,1970,1108,12-14-2022,16-18-26,1,9,small,classroom,binderclip.png,misscaled,1,zo,classroom,c2_zo.png,0,0,zi,kitchen,k2_zi.png,m,1,656,61927,167359
431576,OSS,v6,1970,1006,1970,1108,12-14-2022,16-18-26,1,10,large,bathroom,tissuebox.png,misscaled,0,zi,laundromat,l3_zi.png,0,0,zo,classroom,c1_zo.png,m,1,590,61927,167359
431576,OSS,v6,1970,1006,1970,1108,12-14-2022,16-18-26,1,11,large,bathroom,hairdryer.png,misscaled,1,zi,bathroom,b4_zi.png,1,1,zi,bathroom,b1_zi.png,c,1,973,61927,167359
431576,OSS,v6,1970,1006,1970,1108,12-14-2022,16-18-26,1,12,small,laundromat,socks.png,scaled,0,zi,kitchen,k3_zi.png,1,0,zi,bathroom,b0_zi.png,m,1,937,61927,167359
431576,OSS,v6,1970,1006,1970,1108,12-14-2022,16-18-26,1,13,large,classroom,computer.png,scaled,0,zo,kitchen,k1_zo.png,1,1,zo,kitchen,k0_zo.png,c,1,636,61927,167359
431576,OSS,v6,1970,1006,1970,1108,12-14-2022,16-18-26,1,14,small,bathroom,lipstick.png,misscaled,1,zo,bathroom,b0_zo.png,1,1,zo,bathroom,b1_zo.png,c,1,858,61927,167359
431576,OSS,v6,1970,1006,1970,1108,12-14-2022,16-18-26,1,15,large,kitchen,pot.png,scaled,1,zo,kitchen,k3_zo.png,1,1,zo,kitchen,k4_zo.png,c,1,983,61927,167359
691620,OSS,v6,1920,929,1920,1080,12-14-2022,16-15-16,3,0,large,laundromat,shirt.png,misscaled,1,zi,laundromat,l5_zi.png,1,0,zi,kitchen,k2_zi.png,m,1,1075,65124,272558
691620,OSS,v6,1920,929,1920,1080,12-14-2022,16-15-16,3,1,small,classroom,eraser.png,scaled,0,zi,bathroom,b4_zi.png,0,1,zo,bathroom,b5_zo.png,c,1,940,65124,272558
691620,OSS,v6,1920,929,1920,1080,12-14-2022,16-15-16,3,2,large,laundromat,detergent.png,scaled,1,zo,laundromat,l5_zo.png,1,1,zo,laundromat,l2_zo.png,c,1,1086,65124,272558
691620,OSS,v6,1920,929,1920,1080,12-14-2022,16-15-16,3,3,large,classroom,notebook.png,misscaled,0,zi,kitchen,k3_zi.png,0,1,zo,kitchen,k0_zo.png,c,1,1219,65124,272558
691620,OSS,v6,1920,929,1920,1080,12-14-2022,16-15-16,3,4,small,bathroom,floss.png,scaled,0,zi,kitchen,k5_zi.png,1,0,zi,classroom,c0_zi.png,m,1,856,65124,272558
691620,OSS,v6,1920,929,1920,1080,12-14-2022,16-15-16,3,5,large,classroom,computer.png,scaled,0,zo,bathroom,b1_zo.png,1,1,zo,bathroom,b2_zo.png,c,1,1197,65124,272558
691620,OSS,v6,1920,929,1920,1080,12-14-2022,16-15-16,3,6,large,classroom,powerstrip.png,scaled,0,zo,laundromat,l0_zo.png,0,0,zi,bathroom,b1_zi.png,c,0,1605,65124,272558
691620,OSS,v6,1920,929,1920,1080,12-14-2022,16-15-16,3,7,large,bathroom,tissuebox.png,scaled,1,zo,bathroom,b3_zo.png,0,0,zi,classroom,c5_zi.png,m,1,995,65124,272558
691620,OSS,v6,1920,929,1920,1080,12-14-2022,16-15-16,3,8,large,bathroom,loofah.png,misscaled,1,zi,bathroom,b5_zi.png,0,1,zo,bathroom,b0_zo.png,c,1,1196,65124,272558
691620,OSS,v6,1920,929,1920,1080,12-14-2022,16-15-16,3,9,small,classroom,paperclip.png,misscaled,1,zo,classroom,c5_zo.png,1,1,zo,classroom,c1_zo.png,c,1,1056,65124,272558
691620,OSS,v6,1920,929,1920,1080,12-14-2022,16-15-16,3,10,small,kitchen,saltshaker.png,misscaled,1,zo,kitchen,k3_zo.png,1,0,zo,classroom,c2_zo.png,m,1,765,65124,272558
691620,OSS,v6,1920,929,1920,1080,12-14-2022,16-15-16,3,11,small,classroom,binderclip.png,misscaled,0,zo,bathroom,b4_zo.png,0,0,zi,laundromat,l3_zi.png,m,1,960,65124,272558
691620,OSS,v6,1920,929,1920,1080,12-14-2022,16-15-16,3,12,small,laundromat,coins.png,scaled,1,zi,laundromat,l1_zi.png,0,1,zo,laundromat,l3_zo.png,c,1,839,65124,272558
691620,OSS,v6,1920,929,1920,1080,12-14-2022,16-15-16,3,13,small,bathroom,lipstick.png,misscaled,0,zo,kitchen,k2_zo.png,0,0,zi,classroom,c3_zi.png,m,1,894,65124,272558
691620,OSS,v6,1920,929,1920,1080,12-14-2022,16-15-16,3,14,small,bathroom,nailclipper.png,scaled,1,zi,bathroom,b0_zi.png,1,0,zi,classroom,c4_zi.png,m,1,824,65124,272558
691620,OSS,v6,1920,929,1920,1080,12-14-2022,16-15-16,3,15,large,kitchen,pot.png,misscaled,0,zi,classroom,c2_zi.png,0,1,zo,classroom,c3_zo.png,c,1,908,65124,272558
945663,OSS,v6,1476,711,1476,830,12-14-2022,17-30-57,2,0,small,laundromat,socks.png,misscaled,0,zo,kitchen,k4_zo.png,0,0,zi,classroom,c4_zi.png,m,1,946,61164,222424
945663,OSS,v6,1476,711,1476,830,12-14-2022,17-30-57,2,1,small,kitchen,saltshaker.png,misscaled,1,zo,kitchen,k3_zo.png,1,1,zo,kitchen,k1_zo.png,c,1,535,61164,222424
945663,OSS,v6,1476,711,1476,830,12-14-2022,17-30-57,2,2,large,laundromat,shorts.png,scaled,0,zo,kitchen,k5_zo.png,0,1,zi,kitchen,k3_zi.png,c,1,801,61164,222424
945663,OSS,v6,1476,711,1476,830,12-14-2022,17-30-57,2,3,large,classroom,notebook.png,scaled,1,zo,classroom,c2_zo.png,1,0,zo,laundromat,l2_zo.png,c,0,776,61164,222424
945663,OSS,v6,1476,711,1476,830,12-14-2022,17-30-57,2,4,large,classroom,computer.png,misscaled,0,zi,kitchen,k2_zi.png,1,0,zi,laundromat,l4_zi.png,m,1,739,61164,222424
945663,OSS,v6,1476,711,1476,830,12-14-2022,17-30-57,2,5,small,kitchen,sponge.png,misscaled,0,zo,laundromat,l4_zo.png,1,1,zo,laundromat,l1_zo.png,m,0,631,61164,222424
945663,OSS,v6,1476,711,1476,830,12-14-2022,17-30-57,2,6,small,kitchen,spoon.png,scaled,0,zi,bathroom,b4_zi.png,1,0,zi,classroom,c0_zi.png,m,1,809,61164,222424
945663,OSS,v6,1476,711,1476,830,12-14-2022,17-30-57,2,7,large,laundromat,detergent.png,misscaled,1,zi,laundromat,l2_zi.png,0,1,zo,laundromat,l3_zo.png,m,0,561,61164,222424
945663,OSS,v6,1476,711,1476,830,12-14-2022,17-30-57,2,8,small,laundromat,tidepod.png,scaled,1,zi,laundromat,l3_zi.png,1,0,zi,classroom,c3_zi.png,m,1,1039,61164,222424
945663,OSS,v6,1476,711,1476,830,12-14-2022,17-30-57,2,9,small,laundromat,coins.png,scaled,0,zi,classroom,c1_zi.png,1,0,zi,bathroom,b5_zi.png,m,1,798,61164,222424
945663,OSS,v6,1476,711,1476,830,12-14-2022,17-30-57,2,10,large,classroom,powerstrip.png,misscaled,1,zi,classroom,c2_zi.png,1,0,zi,bathroom,b2_zi.png,m,1,794,61164,222424
945663,OSS,v6,1476,711,1476,830,12-14-2022,17-30-57,2,11,large,laundromat,shirt.png,scaled,1,zo,laundromat,l5_zo.png,0,0,zi,bathroom,b3_zi.png,m,1,690,61164,222424
945663,OSS,v6,1476,711,1476,830,12-14-2022,17-30-57,2,12,large,kitchen,kettle.png,scaled,0,zo,classroom,c4_zo.png,0,1,zi,classroom,c5_zi.png,c,1,572,61164,222424
945663,OSS,v6,1476,711,1476,830,12-14-2022,17-30-57,2,13,small,bathroom,floss.png,misscaled,1,zo,bathroom,b5_zo.png,1,0,zo,classroom,c1_zo.png,m,1,606,61164,222424
945663,OSS,v6,1476,711,1476,830,12-14-2022,17-30-57,2,14,large,bathroom,hairdryer.png,misscaled,0,zi,kitchen,k0_zi.png,1,0,zi,laundromat,l5_zi.png,m,1,694,61164,222424
945663,OSS,v6,1476,711,1476,830,12-14-2022,17-30-57,2,15,small,bathroom,nailclipper.png,scaled,1,zi,bathroom,b1_zi.png,1,1,zi,bathroom,b0_zi.png,c,1,568,61164,222424
188369,OSS,v6,1596,1202,2560,1440,12-14-2022,15-47-51,1,0,large,kitchen,pot.png,misscaled,1,zi,kitchen,k3_zi.png,0,0,zo,laundromat,l5_zo.png,c,0,1467,65740,130714
188369,OSS,v6,1596,1202,2560,1440,12-14-2022,15-47-51,1,1,large,kitchen,kettle.png,scaled,1,zo,kitchen,k2_zo.png,0,0,zi,bathroom,b2_zi.png,m,1,1658,65740,130714
188369,OSS,v6,1596,1202,2560,1440,12-14-2022,15-47-51,1,2,small,bathroom,lipstick.png,misscaled,1,zo,bathroom,b1_zo.png,1,1,zo,bathroom,b3_zo.png,m,0,920,65740,130714
188369,OSS,v6,1596,1202,2560,1440,12-14-2022,15-47-51,1,3,large,bathroom,hairdryer.png,misscaled,0,zi,laundromat,l0_zi.png,1,1,zi,laundromat,l1_zi.png,m,0,1004,65740,130714
188369,OSS,v6,1596,1202,2560,1440,12-14-2022,15-47-51,1,4,small,kitchen,saltshaker.png,misscaled,0,zo,classroom,c1_zo.png,1,0,zo,bathroom,b5_zo.png,m,1,1150,65740,130714
188369,OSS,v6,1596,1202,2560,1440,12-14-2022,15-47-51,1,5,small,laundromat,coins.png,misscaled,1,zo,laundromat,l0_zo.png,0,1,zi,laundromat,l3_zi.png,c,1,706,65740,130714
188369,OSS,v6,1596,1202,2560,1440,12-14-2022,15-47-51,1,6,small,kitchen,spoon.png,scaled,1,zi,kitchen,k2_zi.png,0,0,zo,laundromat,l3_zo.png,m,1,810,65740,130714
188369,OSS,v6,1596,1202,2560,1440,12-14-2022,15-47-51,1,7,small,bathroom,nailclipper.png,scaled,1,zi,bathroom,b1_zi.png,1,0,zi,classroom,c0_zi.png,m,1,958,65740,130714
188369,OSS,v6,1596,1202,2560,1440,12-14-2022,15-47-51,1,8,large,classroom,computer.png,scaled,1,zo,classroom,c0_zo.png,1,1,zo,classroom,c3_zo.png,c,1,1202,65740,130714
188369,OSS,v6,1596,1202,2560,1440,12-14-2022,15-47-51,1,9,large,laundromat,shirt.png,misscaled,1,zi,laundromat,l5_zi.png,0,0,zo,classroom,c4_zo.png,m,1,812,65740,130714
188369,OSS,v6,1596,1202,2560,1440,12-14-2022,15-47-51,1,10,large,laundromat,detergent.png,scaled,0,zo,bathroom,b0_zo.png,1,1,zo,bathroom,b4_zo.png,c,1,1103,65740,130714
188369,OSS,v6,1596,1202,2560,1440,12-14-2022,15-47-51,1,11,large,classroom,notebook.png,scaled,0,zo,laundromat,l4_zo.png,1,0,zo,kitchen,k0_zo.png,m,1,814,65740,130714
188369,OSS,v6,1596,1202,2560,1440,12-14-2022,15-47-51,1,12,small,bathroom,floss.png,misscaled,0,zo,kitchen,k5_zo.png,0,0,zi,classroom,c2_zi.png,m,1,1091,65740,130714
188369,OSS,v6,1596,1202,2560,1440,12-14-2022,15-47-51,1,13,small,classroom,eraser.png,scaled,0,zi,laundromat,l4_zi.png,1,1,zi,laundromat,l2_zi.png,c,1,1036,65740,130714
188369,OSS,v6,1596,1202,2560,1440,12-14-2022,15-47-51,1,14,large,laundromat,shorts.png,misscaled,0,zi,classroom,c4_zi.png,0,0,zo,bathroom,b2_zo.png,m,1,813,65740,130714
188369,OSS,v6,1596,1202,2560,1440,12-14-2022,15-47-51,1,15,small,classroom,paperclip.png,scaled,0,zi,bathroom,b0_zi.png,1,1,zi,bathroom,b4_zi.png,c,1,651,65740,130714
262576,OSS,v6,1114,1149,2240,1260,12-14-2022,14-59-49,2,0,large,classroom,computer.png,misscaled,1,zi,classroom,c0_zi.png,1,0,zi,kitchen,k5_zi.png,c,0,1040,63436,260797
262576,OSS,v6,1114,1149,2240,1260,12-14-2022,14-59-49,2,1,small,classroom,paperclip.png,scaled,0,zi,bathroom,b4_zi.png,0,0,zo,kitchen,k1_zo.png,m,1,902,63436,260797
262576,OSS,v6,1114,1149,2240,1260,12-14-2022,14-59-49,2,2,large,laundromat,shorts.png,scaled,0,zo,classroom,c4_zo.png,0,1,zi,classroom,c3_zi.png,m,0,962,63436,260797
262576,OSS,v6,1114,1149,2240,1260,12-14-2022,14-59-49,2,3,large,classroom,powerstrip.png,misscaled,0,zi,laundromat,l5_zi.png,0,0,zo,bathroom,b5_zo.png,m,1,955,63436,260797
262576,OSS,v6,1114,1149,2240,1260,12-14-2022,14-59-49,2,4,small,classroom,eraser.png,scaled,1,zi,classroom,c5_zi.png,0,1,zo,classroom,c0_zo.png,c,1,593,63436,260797
262576,OSS,v6,1114,1149,2240,1260,12-14-2022,14-59-49,2,5,large,laundromat,shirt.png,misscaled,0,zi,classroom,c2_zi.png,0,0,zo,bathroom,b1_zo.png,m,1,622,63436,260797
262576,OSS,v6,1114,1149,2240,1260,12-14-2022,14-59-49,2,6,large,laundromat,detergent.png,misscaled,1,zi,laundromat,l0_zi.png,1,1,zi,laundromat,l1_zi.png,c,1,540,63436,260797
262576,OSS,v6,1114,1149,2240,1260,12-14-2022,14-59-49,2,7,small,bathroom,nailclipper.png,scaled,1,zi,bathroom,b2_zi.png,0,0,zo,classroom,c2_zo.png,m,1,739,63436,260797
262576,OSS,v6,1114,1149,2240,1260,12-14-2022,14-59-49,2,8,small,laundromat,tidepod.png,misscaled,0,zo,bathroom,b0_zo.png,0,1,zi,bathroom,b5_zi.png,m,0,886,63436,260797
262576,OSS,v6,1114,1149,2240,1260,12-14-2022,14-59-49,2,9,large,bathroom,loofah.png,scaled,1,zo,bathroom,b2_zo.png,1,1,zo,bathroom,b4_zo.png,c,1,782,63436,260797
262576,OSS,v6,1114,1149,2240,1260,12-14-2022,14-59-49,2,10,large,kitchen,kettle.png,scaled,0,zo,laundromat,l1_zo.png,0,1,zi,laundromat,l3_zi.png,m,0,900,63436,260797
262576,OSS,v6,1114,1149,2240,1260,12-14-2022,14-59-49,2,11,small,kitchen,spoon.png,misscaled,0,zo,laundromat,l2_zo.png,0,0,zi,bathroom,b0_zi.png,m,1,768,63436,260797
262576,OSS,v6,1114,1149,2240,1260,12-14-2022,14-59-49,2,12,small,laundromat,socks.png,misscaled,1,zo,laundromat,l4_zo.png,1,0,zo,kitchen,k3_zo.png,m,1,844,63436,260797
262576,OSS,v6,1114,1149,2240,1260,12-14-2022,14-59-49,2,13,large,kitchen,pot.png,scaled,1,zo,kitchen,k5_zo.png,1,0,zo,laundromat,l0_zo.png,m,1,1044,63436,260797
262576,OSS,v6,1114,1149,2240,1260,12-14-2022,14-59-49,2,14,small,kitchen,sponge.png,scaled,0,zi,bathroom,b3_zi.png,1,1,zi,bathroom,b1_zi.png,c,1,972,63436,260797
262576,OSS,v6,1114,1149,2240,1260,12-14-2022,14-59-49,2,15,small,classroom,binderclip.png,misscaled,1,zo,classroom,c5_zo.png,1,0,zo,laundromat,l5_zo.png,m,1,805,63436,260797
102436,OSS,v6,1366,635,1366,768,12-14-2022,15-31-16,2,0,large,classroom,computer.png,misscaled,0,zi,bathroom,b3_zi.png,0,0,zo,kitchen,k2_zo.png,m,1,674,59101,209020
102436,OSS,v6,1366,635,1366,768,12-14-2022,15-31-16,2,1,large,classroom,notebook.png,misscaled,1,zi,classroom,c2_zi.png,1,1,zi,classroom,c0_zi.png,c,1,675,59101,209020
102436,OSS,v6,1366,635,1366,768,12-14-2022,15-31-16,2,2,small,kitchen,spoon.png,scaled,1,zi,kitchen,k5_zi.png,1,1,zi,kitchen,k2_zi.png,c,1,766,59101,209020
102436,OSS,v6,1366,635,1366,768,12-14-2022,15-31-16,2,3,small,bathroom,lipstick.png,misscaled,0,zo,kitchen,k5_zo.png,0,0,zi,classroom,c4_zi.png,m,1,532,59101,209020
102436,OSS,v6,1366,635,1366,768,12-14-2022,15-31-16,2,4,large,kitchen,pot.png,misscaled,1,zi,kitchen,k4_zi.png,1,0,zi,classroom,c1_zi.png,m,1,616,59101,209020
102436,OSS,v6,1366,635,1366,768,12-14-2022,15-31-16,2,5,large,classroom,powerstrip.png,scaled,1,zo,classroom,c5_zo.png,1,1,zo,classroom,c2_zo.png,c,1,725,59101,209020
102436,OSS,v6,1366,635,1366,768,12-14-2022,15-31-16,2,6,small,classroom,paperclip.png,scaled,0,zi,bathroom,b4_zi.png,0,1,zo,bathroom,b0_zo.png,c,1,699,59101,209020
102436,OSS,v6,1366,635,1366,768,12-14-2022,15-31-16,2,7,small,kitchen,sponge.png,scaled,1,zi,kitchen,k0_zi.png,0,1,zo,kitchen,k1_zo.png,c,1,659,59101,209020
102436,OSS,v6,1366,635,1366,768,12-14-2022,15-31-16,2,8,large,laundromat,shirt.png,misscaled,0,zi,classroom,c5_zi.png,1,1,zi,classroom,c3_zi.png,c,1,637,59101,209020
102436,OSS,v6,1366,635,1366,768,12-14-2022,15-31-16,2,9,small,laundromat,socks.png,misscaled,0,zo,kitchen,k3_zo.png,1,0,zo,classroom,c4_zo.png,m,1,638,59101,209020
102436,OSS,v6,1366,635,1366,768,12-14-2022,15-31-16,2,10,large,kitchen,toaster.png,scaled,0,zo,bathroom,b5_zo.png,0,0,zi,laundromat,l3_zi.png,m,1,608,59101,209020
102436,OSS,v6,1366,635,1366,768,12-14-2022,15-31-16,2,11,large,laundromat,detergent.png,scaled,1,zo,laundromat,l4_zo.png,1,1,zo,laundromat,l3_zo.png,c,1,679,59101,209020
102436,OSS,v6,1366,635,1366,768,12-14-2022,15-31-16,2,12,small,bathroom,floss.png,misscaled,1,zo,bathroom,b2_zo.png,0,1,zi,bathroom,b1_zi.png,c,1,744,59101,209020
102436,OSS,v6,1366,635,1366,768,12-14-2022,15-31-16,2,13,small,laundromat,coins.png,misscaled,1,zo,laundromat,l2_zo.png,1,1,zo,laundromat,l5_zo.png,c,1,801,59101,209020
102436,OSS,v6,1366,635,1366,768,12-14-2022,15-31-16,2,14,small,kitchen,saltshaker.png,scaled,0,zi,bathroom,b5_zi.png,1,1,zi,bathroom,b2_zi.png,c,1,698,59101,209020
102436,OSS,v6,1366,635,1366,768,12-14-2022,15-31-16,2,15,large,laundromat,shorts.png,scaled,0,zo,kitchen,k0_zo.png,1,1,zo,kitchen,k4_zo.png,c,1,683,59101,209020
652957,OSS,v6,2880,1393,1920,1080,12-14-2022,15-36-32,3,0,large,classroom,notebook.png,scaled,1,zo,classroom,c4_zo.png,0,1,zi,classroom,c1_zi.png,c,1,1039,62146,145817
652957,OSS,v6,2880,1393,1920,1080,12-14-2022,15-36-32,3,1,small,bathroom,floss.png,misscaled,1,zo,bathroom,b5_zo.png,1,1,zo,bathroom,b2_zo.png,c,1,802,62146,145817
652957,OSS,v6,2880,1393,1920,1080,12-14-2022,15-36-32,3,2,small,classroom,paperclip.png,misscaled,0,zo,laundromat,l2_zo.png,1,1,zo,laundromat,l3_zo.png,c,1,737,62146,145817
652957,OSS,v6,2880,1393,1920,1080,12-14-2022,15-36-32,3,3,small,laundromat,socks.png,scaled,0,zi,bathroom,b3_zi.png,0,0,zo,classroom,c0_zo.png,m,1,720,62146,145817
652957,OSS,v6,2880,1393,1920,1080,12-14-2022,15-36-32,3,4,large,classroom,computer.png,scaled,0,zo,bathroom,b0_zo.png,1,0,zo,laundromat,l0_zo.png,m,1,856,62146,145817
652957,OSS,v6,2880,1393,1920,1080,12-14-2022,15-36-32,3,5,small,kitchen,spoon.png,scaled,0,zi,bathroom,b5_zi.png,1,0,zi,laundromat,l4_zi.png,m,1,646,62146,145817
652957,OSS,v6,2880,1393,1920,1080,12-14-2022,15-36-32,3,6,large,laundromat,detergent.png,misscaled,0,zi,bathroom,b0_zi.png,0,1,zo,bathroom,b3_zo.png,c,1,980,62146,145817
652957,OSS,v6,2880,1393,1920,1080,12-14-2022,15-36-32,3,7,large,classroom,powerstrip.png,scaled,1,zo,classroom,c5_zo.png,1,0,zo,kitchen,k1_zo.png,m,1,900,62146,145817
652957,OSS,v6,2880,1393,1920,1080,12-14-2022,15-36-32,3,8,large,bathroom,hairdryer.png,misscaled,0,zi,classroom,c2_zi.png,0,1,zo,classroom,c3_zo.png,c,1,1278,62146,145817
652957,OSS,v6,2880,1393,1920,1080,12-14-2022,15-36-32,3,9,small,bathroom,nailclipper.png,misscaled,0,zo,kitchen,k5_zo.png,0,0,zi,classroom,c4_zi.png,m,1,986,62146,145817
652957,OSS,v6,2880,1393,1920,1080,12-14-2022,15-36-32,3,10,small,bathroom,lipstick.png,scaled,1,zi,bathroom,b1_zi.png,0,0,zo,classroom,c1_zo.png,m,1,655,62146,145817
652957,OSS,v6,2880,1393,1920,1080,12-14-2022,15-36-32,3,11,large,laundromat,shirt.png,misscaled,1,zi,laundromat,l5_zi.png,0,1,zo,laundromat,l1_zo.png,c,1,730,62146,145817
652957,OSS,v6,2880,1393,1920,1080,12-14-2022,15-36-32,3,12,large,kitchen,toaster.png,misscaled,1,zi,kitchen,k5_zi.png,1,1,zi,kitchen,k1_zi.png,c,1,884,62146,145817
652957,OSS,v6,2880,1393,1920,1080,12-14-2022,15-36-32,3,13,small,laundromat,tidepod.png,misscaled,1,zo,laundromat,l5_zo.png,0,0,zi,classroom,c3_zi.png,m,1,833,62146,145817
652957,OSS,v6,2880,1393,1920,1080,12-14-2022,15-36-32,3,14,large,bathroom,loofah.png,scaled,0,zo,laundromat,l4_zo.png,0,0,zi,classroom,c0_zi.png,m,1,1048,62146,145817
652957,OSS,v6,2880,1393,1920,1080,12-14-2022,15-36-32,3,15,small,kitchen,sponge.png,scaled,1,zi,kitchen,k0_zi.png,1,0,zi,bathroom,b2_zi.png,m,1,822,62146,145817
312912,OSS,v6,1290,726,1920,1080,12-14-2022,15-46-15,2,0,small,classroom,paperclip.png,scaled,0,zi,kitchen,k4_zi.png,1,1,zi,kitchen,k5_zi.png,c,1,748,59565,218139
312912,OSS,v6,1290,726,1920,1080,12-14-2022,15-46-15,2,1,large,kitchen,pot.png,scaled,0,zo,classroom,c2_zo.png,1,0,zo,laundromat,l4_zo.png,m,1,604,59565,218139
312912,OSS,v6,1290,726,1920,1080,12-14-2022,15-46-15,2,2,large,bathroom,tissuebox.png,scaled,1,zo,bathroom,b2_zo.png,1,1,zo,bathroom,b3_zo.png,c,1,623,59565,218139
312912,OSS,v6,1290,726,1920,1080,12-14-2022,15-46-15,2,3,large,classroom,computer.png,misscaled,0,zi,laundromat,l2_zi.png,0,1,zo,laundromat,l1_zo.png,c,1,636,59565,218139
312912,OSS,v6,1290,726,1920,1080,12-14-2022,15-46-15,2,4,small,bathroom,floss.png,misscaled,1,zo,bathroom,b5_zo.png,0,1,zi,bathroom,b1_zi.png,m,0,896,59565,218139
312912,OSS,v6,1290,726,1920,1080,12-14-2022,15-46-15,2,5,large,bathroom,loofah.png,misscaled,0,zi,kitchen,k2_zi.png,1,0,zi,laundromat,l5_zi.png,m,1,708,59565,218139
312912,OSS,v6,1290,726,1920,1080,12-14-2022,15-46-15,2,6,small,bathroom,nailclipper.png,misscaled,0,zo,laundromat,l5_zo.png,1,1,zo,laundromat,l3_zo.png,c,1,684,59565,218139
312912,OSS,v6,1290,726,1920,1080,12-14-2022,15-46-15,2,7,large,laundromat,shorts.png,misscaled,1,zi,laundromat,l3_zi.png,1,1,zi,laundromat,l1_zi.png,c,1,619,59565,218139
312912,OSS,v6,1290,726,1920,1080,12-14-2022,15-46-15,2,8,small,kitchen,saltshaker.png,scaled,1,zi,kitchen,k1_zi.png,0,0,zo,laundromat,l2_zo.png,m,1,597,59565,218139
312912,OSS,v6,1290,726,1920,1080,12-14-2022,15-46-15,2,9,small,kitchen,sponge.png,misscaled,1,zo,kitchen,k0_zo.png,1,0,zo,classroom,c5_zo.png,m,1,616,59565,218139
312912,OSS,v6,1290,726,1920,1080,12-14-2022,15-46-15,2,10,large,kitchen,kettle.png,scaled,1,zo,kitchen,k5_zo.png,1,1,zo,kitchen,k1_zo.png,c,1,666,59565,218139
312912,OSS,v6,1290,726,1920,1080,12-14-2022,15-46-15,2,11,large,kitchen,toaster.png,scaled,0,zo,classroom,c3_zo.png,1,1,zo,classroom,c4_zo.png,c,1,817,59565,218139
312912,OSS,v6,1290,726,1920,1080,12-14-2022,15-46-15,2,12,large,classroom,notebook.png,misscaled,1,zi,classroom,c1_zi.png,1,1,zi,classroom,c5_zi.png,c,1,610,59565,218139
312912,OSS,v6,1290,726,1920,1080,12-14-2022,15-46-15,2,13,small,bathroom,lipstick.png,scaled,1,zi,bathroom,b3_zi.png,0,1,zo,bathroom,b1_zo.png,c,1,673,59565,218139
312912,OSS,v6,1290,726,1920,1080,12-14-2022,15-46-15,2,14,small,classroom,eraser.png,scaled,0,zi,bathroom,b5_zi.png,0,1,zo,bathroom,b0_zo.png,c,1,694,59565,218139
312912,OSS,v6,1290,726,1920,1080,12-14-2022,15-46-15,2,15,small,laundromat,coins.png,misscaled,0,zo,bathroom,b4_zo.png,0,0,zi,kitchen,k3_zi.png,c,0,657,59565,218139
449858,OSS,v6,1366,625,1366,768,12-14-2022,15-58-6,3,0,large,bathroom,tissuebox.png,scaled,0,zo,classroom,c1_zo.png,1,0,zo,laundromat,l0_zo.png,c,0,915,62767,234290
449858,OSS,v6,1366,625,1366,768,12-14-2022,15-58-6,3,1,small,classroom,binderclip.png,scaled,1,zi,classroom,c1_zi.png,1,0,zi,bathroom,b0_zi.png,m,1,987,62767,234290
449858,OSS,v6,1366,625,1366,768,12-14-2022,15-58-6,3,2,small,laundromat,socks.png,misscaled,1,zo,laundromat,l3_zo.png,0,1,zi,laundromat,l4_zi.png,c,1,677,62767,234290
449858,OSS,v6,1366,625,1366,768,12-14-2022,15-58-6,3,3,large,classroom,notebook.png,misscaled,1,zi,classroom,c4_zi.png,0,0,zo,laundromat,l5_zo.png,m,1,1188,62767,234290
449858,OSS,v6,1366,625,1366,768,12-14-2022,15-58-6,3,4,large,laundromat,detergent.png,scaled,1,zo,laundromat,l1_zo.png,0,0,zi,kitchen,k1_zi.png,m,1,1039,62767,234290
449858,OSS,v6,1366,625,1366,768,12-14-2022,15-58-6,3,5,small,kitchen,saltshaker.png,misscaled,0,zo,laundromat,l2_zo.png,0,0,zi,bathroom,b2_zi.png,m,1,1132,62767,234290
449858,OSS,v6,1366,625,1366,768,12-14-2022,15-58-6,3,6,large,kitchen,kettle.png,misscaled,0,zi,classroom,c2_zi.png,1,1,zi,classroom,c5_zi.png,c,1,810,62767,234290
449858,OSS,v6,1366,625,1366,768,12-14-2022,15-58-6,3,7,large,kitchen,pot.png,scaled,0,zo,laundromat,l4_zo.png,0,0,zi,bathroom,b4_zi.png,m,1,834,62767,234290
449858,OSS,v6,1366,625,1366,768,12-14-2022,15-58-6,3,8,large,bathroom,hairdryer.png,misscaled,1,zi,bathroom,b3_zi.png,0,1,zo,bathroom,b1_zo.png,c,1,850,62767,234290
449858,OSS,v6,1366,625,1366,768,12-14-2022,15-58-6,3,9,small,bathroom,nailclipper.png,scaled,0,zi,kitchen,k2_zi.png,1,1,zi,kitchen,k3_zi.png,c,1,1050,62767,234290
449858,OSS,v6,1366,625,1366,768,12-14-2022,15-58-6,3,10,large,bathroom,loofah.png,misscaled,0,zi,kitchen,k0_zi.png,0,0,zo,classroom,c0_zo.png,m,1,796,62767,234290
449858,OSS,v6,1366,625,1366,768,12-14-2022,15-58-6,3,11,small,laundromat,tidepod.png,misscaled,0,zo,bathroom,b4_zo.png,1,1,zo,bathroom,b5_zo.png,c,1,891,62767,234290
449858,OSS,v6,1366,625,1366,768,12-14-2022,15-58-6,3,12,large,classroom,powerstrip.png,scaled,1,zo,classroom,c5_zo.png,0,0,zi,laundromat,l0_zi.png,m,1,710,62767,234290
449858,OSS,v6,1366,625,1366,768,12-14-2022,15-58-6,3,13,small,bathroom,lipstick.png,scaled,1,zi,bathroom,b5_zi.png,1,1,zi,bathroom,b1_zi.png,c,1,877,62767,234290
449858,OSS,v6,1366,625,1366,768,12-14-2022,15-58-6,3,14,small,classroom,eraser.png,misscaled,1,zo,classroom,c2_zo.png,0,1,zi,classroom,c0_zi.png,c,1,707,62767,234290
449858,OSS,v6,1366,625,1366,768,12-14-2022,15-58-6,3,15,small,bathroom,floss.png,scaled,0,zi,laundromat,l2_zi.png,0,0,zo,kitchen,k1_zo.png,c,0,598,62767,234290
302580,OSS,v6,1536,746,1536,864,12-14-2022,15-53-11,2,0,small,laundromat,socks.png,scaled,0,zi,kitchen,k5_zi.png,1,1,zi,kitchen,k2_zi.png,c,1,717,60719,191493
302580,OSS,v6,1536,746,1536,864,12-14-2022,15-53-11,2,1,large,kitchen,pot.png,scaled,1,zo,kitchen,k5_zo.png,0,1,zi,kitchen,k0_zi.png,c,1,674,60719,191493
302580,OSS,v6,1536,746,1536,864,12-14-2022,15-53-11,2,2,small,classroom,eraser.png,misscaled,0,zo,laundromat,l5_zo.png,1,0,zo,bathroom,b0_zo.png,m,1,842,60719,191493
302580,OSS,v6,1536,746,1536,864,12-14-2022,15-53-11,2,3,small,bathroom,floss.png,misscaled,0,zo,kitchen,k3_zo.png,1,1,zo,kitchen,k1_zo.png,c,1,716,60719,191493
302580,OSS,v6,1536,746,1536,864,12-14-2022,15-53-11,2,4,large,classroom,notebook.png,misscaled,1,zi,classroom,c2_zi.png,1,0,zi,kitchen,k1_zi.png,m,1,686,60719,191493
302580,OSS,v6,1536,746,1536,864,12-14-2022,15-53-11,2,5,small,bathroom,nailclipper.png,scaled,1,zi,bathroom,b3_zi.png,1,0,zi,laundromat,l1_zi.png,c,0,1001,60719,191493
302580,OSS,v6,1536,746,1536,864,12-14-2022,15-53-11,2,6,large,bathroom,tissuebox.png,misscaled,0,zi,laundromat,l5_zi.png,1,0,zi,classroom,c3_zi.png,m,1,834,60719,191493
302580,OSS,v6,1536,746,1536,864,12-14-2022,15-53-11,2,7,small,classroom,paperclip.png,scaled,1,zi,classroom,c1_zi.png,0,0,zo,bathroom,b5_zo.png,m,1,637,60719,191493
302580,OSS,v6,1536,746,1536,864,12-14-2022,15-53-11,2,8,large,kitchen,kettle.png,scaled,0,zo,classroom,c4_zo.png,1,1,zo,classroom,c3_zo.png,c,1,633,60719,191493
302580,OSS,v6,1536,746,1536,864,12-14-2022,15-53-11,2,9,small,bathroom,lipstick.png,misscaled,1,zo,bathroom,b4_zo.png,0,0,zi,kitchen,k4_zi.png,m,1,600,60719,191493
302580,OSS,v6,1536,746,1536,864,12-14-2022,15-53-11,2,10,small,classroom,binderclip.png,scaled,0,zi,laundromat,l4_zi.png,1,1,zi,laundromat,l0_zi.png,c,1,745,60719,191493
302580,OSS,v6,1536,746,1536,864,12-14-2022,15-53-11,2,11,large,kitchen,toaster.png,misscaled,0,zi,classroom,c4_zi.png,1,0,zi,bathroom,b2_zi.png,m,1,601,60719,191493
302580,OSS,v6,1536,746,1536,864,12-14-2022,15-53-11,2,12,large,laundromat,shorts.png,scaled,1,zo,laundromat,l0_zo.png,1,0,zo,kitchen,k2_zo.png,m,1,685,60719,191493
302580,OSS,v6,1536,746,1536,864,12-14-2022,15-53-11,2,13,large,bathroom,hairdryer.png,misscaled,1,zi,bathroom,b1_zi.png,1,0,zi,classroom,c0_zi.png,m,1,618,60719,191493
302580,OSS,v6,1536,746,1536,864,12-14-2022,15-53-11,2,14,large,classroom,powerstrip.png,scaled,0,zo,laundromat,l2_zo.png,0,0,zi,bathroom,b0_zi.png,c,0,812,60719,191493
302580,OSS,v6,1536,746,1536,864,12-14-2022,15-53-11,2,15,small,kitchen,spoon.png,misscaled,1,zo,kitchen,k0_zo.png,0,1,zi,kitchen,k3_zi.png,c,1,704,60719,191493
139448,OSS,v6,1366,625,1366,768,12-14-2022,17-52-42,2,0,small,classroom,paperclip.png,misscaled,1,zo,classroom,c2_zo.png,0,0,zi,laundromat,l4_zi.png,m,1,1189,74471,148412
139448,OSS,v6,1366,625,1366,768,12-14-2022,17-52-42,2,1,large,kitchen,pot.png,misscaled,0,zi,laundromat,l5_zi.png,0,0,zo,bathroom,b4_zo.png,m,1,1470,74471,148412
139448,OSS,v6,1366,625,1366,768,12-14-2022,17-52-42,2,2,small,bathroom,nailclipper.png,scaled,1,zi,bathroom,b5_zi.png,1,0,zi,laundromat,l0_zi.png,m,1,1244,74471,148412
139448,OSS,v6,1366,625,1366,768,12-14-2022,17-52-42,2,3,small,laundromat,tidepod.png,misscaled,0,zo,classroom,c1_zo.png,0,1,zi,classroom,c3_zi.png,c,1,1341,74471,148412
139448,OSS,v6,1366,625,1366,768,12-14-2022,17-52-42,2,4,small,laundromat,socks.png,scaled,0,zi,classroom,c5_zi.png,0,0,zo,bathroom,b1_zo.png,m,1,1854,74471,148412
139448,OSS,v6,1366,625,1366,768,12-14-2022,17-52-42,2,5,small,bathroom,lipstick.png,misscaled,1,zo,bathroom,b0_zo.png,0,0,zi,kitchen,k5_zi.png,c,0,1677,74471,148412
139448,OSS,v6,1366,625,1366,768,12-14-2022,17-52-42,2,6,large,bathroom,tissuebox.png,scaled,0,zo,laundromat,l4_zo.png,1,1,zo,laundromat,l1_zo.png,c,1,1925,74471,148412
139448,OSS,v6,1366,625,1366,768,12-14-2022,17-52-42,2,7,small,classroom,eraser.png,scaled,0,zi,laundromat,l2_zi.png,0,0,zo,kitchen,k0_zo.png,m,1,1819,74471,148412
139448,OSS,v6,1366,625,1366,768,12-14-2022,17-52-42,2,8,large,laundromat,shirt.png,misscaled,1,zi,laundromat,l3_zi.png,0,0,zo,kitchen,k3_zo.png,m,1,1364,74471,148412
139448,OSS,v6,1366,625,1366,768,12-14-2022,17-52-42,2,9,small,classroom,binderclip.png,scaled,1,zi,classroom,c0_zi.png,1,1,zi,classroom,c2_zi.png,c,1,1317,74471,148412
139448,OSS,v6,1366,625,1366,768,12-14-2022,17-52-42,2,10,large,kitchen,toaster.png,scaled,1,zo,kitchen,k1_zo.png,1,0,zo,bathroom,b3_zo.png,m,1,1756,74471,148412
139448,OSS,v6,1366,625,1366,768,12-14-2022,17-52-42,2,11,large,classroom,powerstrip.png,scaled,1,zo,classroom,c0_zo.png,1,0,zo,kitchen,k4_zo.png,m,1,1740,74471,148412
139448,OSS,v6,1366,625,1366,768,12-14-2022,17-52-42,2,12,large,bathroom,loofah.png,misscaled,0,zi,kitchen,k1_zi.png,1,0,zi,laundromat,l1_zi.png,none,0,2001,74471,148412
139448,OSS,v6,1366,625,1366,768,12-14-2022,17-52-42,2,13,large,kitchen,kettle.png,scaled,0,zo,bathroom,b5_zo.png,1,1,zo,bathroom,b2_zo.png,m,0,1659,74471,148412
139448,OSS,v6,1366,625,1366,768,12-14-2022,17-52-42,2,14,small,bathroom,floss.png,misscaled,0,zo,laundromat,l2_zo.png,1,1,zo,laundromat,l0_zo.png,c,1,1155,74471,148412
139448,OSS,v6,1366,625,1366,768,12-14-2022,17-52-42,2,15,large,bathroom,hairdryer.png,misscaled,1,zi,bathroom,b0_zi.png,0,0,zo,classroom,c3_zo.png,m,1,1387,74471,148412
