subjID,experimentName,versionName,windowWidth,windowHeight,screenWidth,screenHeight,startDate,startTime,pracTries,trialNum,objectSize,objectCategory,object,s2_misscaled,misscaled,objectScene1SemanticCongruency,scene1ZoomName,scene1Category,scene1,scene2SizeCong,scene2SemCong,scene2ZoomName,scene2Category,scene2,keyPress,accuracy,RT,experimentTime,totalTime,age,gender
747317,OSS,v7,1536,722,1536,864,2-16-2023,14-10-37,2,0,small,kitchen,sponge.png,misscaled,misscaled,0,zo,classroom,c1_zo.png,1,1,zo,classroom,c4_zo.png,c,1,838,65856,272145,40,Woman
747317,OSS,v7,1536,722,1536,864,2-16-2023,14-10-37,2,1,small,kitchen,saltshaker.png,scaled,scaled,1,zi,kitchen,k3_zi.png,1,0,zi,bathroom,b0_zi.png,c,0,851,65856,272145,40,Woman
747317,OSS,v7,1536,722,1536,864,2-16-2023,14-10-37,2,2,large,laundromat,detergent.png,misscaled,scaled,1,zo,laundromat,l4_zo.png,0,1,zi,laundromat,l3_zi.png,c,1,985,65856,272145,40,Woman
747317,OSS,v7,1536,722,1536,864,2-16-2023,14-10-37,2,3,small,classroom,paperclip.png,misscaled,misscaled,1,zo,classroom,c0_zo.png,1,0,zo,kitchen,k1_zo.png,c,0,748,65856,272145,40,Woman
747317,OSS,v7,1536,722,1536,864,2-16-2023,14-10-37,2,4,small,classroom,binderclip.png,misscaled,scaled,1,zi,classroom,c5_zi.png,0,0,zo,kitchen,k4_zo.png,m,1,773,65856,272145,40,Woman
747317,OSS,v7,1536,722,1536,864,2-16-2023,14-10-37,2,5,small,classroom,eraser.png,scaled,misscaled,1,zo,classroom,c5_zo.png,0,0,zi,kitchen,k1_zi.png,m,1,962,65856,272145,40,Woman
747317,OSS,v7,1536,722,1536,864,2-16-2023,14-10-37,2,6,large,laundromat,shirt.png,misscaled,misscaled,0,zi,bathroom,b2_zi.png,1,1,zi,bathroom,b5_zi.png,c,1,843,65856,272145,40,Woman
747317,OSS,v7,1536,722,1536,864,2-16-2023,14-10-37,2,7,small,bathroom,floss.png,scaled,scaled,0,zi,kitchen,k2_zi.png,1,0,zi,classroom,c4_zi.png,m,1,733,65856,272145,40,Woman
747317,OSS,v7,1536,722,1536,864,2-16-2023,14-10-37,2,8,large,classroom,powerstrip.png,misscaled,misscaled,1,zi,classroom,c1_zi.png,1,0,zi,laundromat,l1_zi.png,m,1,724,65856,272145,40,Woman
747317,OSS,v7,1536,722,1536,864,2-16-2023,14-10-37,2,9,large,bathroom,tissuebox.png,misscaled,scaled,0,zo,kitchen,k2_zo.png,0,0,zi,laundromat,l4_zi.png,m,1,655,65856,272145,40,Woman
747317,OSS,v7,1536,722,1536,864,2-16-2023,14-10-37,2,10,large,bathroom,loofah.png,misscaled,misscaled,0,zi,laundromat,l0_zi.png,1,0,zi,kitchen,k0_zi.png,m,1,818,65856,272145,40,Woman
747317,OSS,v7,1536,722,1536,864,2-16-2023,14-10-37,2,11,large,kitchen,pot.png,misscaled,scaled,1,zo,kitchen,k0_zo.png,0,1,zi,kitchen,k5_zi.png,c,1,818,65856,272145,40,Woman
747317,OSS,v7,1536,722,1536,864,2-16-2023,14-10-37,2,12,small,kitchen,spoon.png,scaled,misscaled,0,zo,laundromat,l5_zo.png,0,1,zi,laundromat,l2_zi.png,c,1,639,65856,272145,40,Woman
747317,OSS,v7,1536,722,1536,864,2-16-2023,14-10-37,2,13,small,laundromat,coins.png,misscaled,scaled,0,zi,bathroom,b3_zi.png,0,1,zo,bathroom,b0_zo.png,c,1,1036,65856,272145,40,Woman
747317,OSS,v7,1536,722,1536,864,2-16-2023,14-10-37,2,14,large,bathroom,hairdryer.png,scaled,scaled,0,zo,laundromat,l1_zo.png,1,0,zo,classroom,c3_zo.png,c,0,639,65856,272145,40,Woman
747317,OSS,v7,1536,722,1536,864,2-16-2023,14-10-37,2,15,large,kitchen,kettle.png,scaled,misscaled,1,zi,kitchen,k4_zi.png,0,1,zo,kitchen,k3_zo.png,c,1,1669,65856,272145,40,Woman
468374,OSS,v7,1536,714,1536,864,2-15-2023,11-51-57,1,0,large,bathroom,loofah.png,misscaled,scaled,1,zo,bathroom,b5_zo.png,0,1,zi,bathroom,b0_zi.png,c,1,1462,71341,204793,40,Man
468374,OSS,v7,1536,714,1536,864,2-15-2023,11-51-57,1,1,large,laundromat,shorts.png,scaled,misscaled,0,zi,bathroom,b3_zi.png,0,0,zo,kitchen,k1_zo.png,m,1,1167,71341,204793,40,Man
468374,OSS,v7,1536,714,1536,864,2-15-2023,11-51-57,1,2,small,kitchen,spoon.png,misscaled,scaled,1,zi,kitchen,k4_zi.png,0,1,zo,kitchen,k2_zo.png,m,0,1218,71341,204793,40,Man
468374,OSS,v7,1536,714,1536,864,2-15-2023,11-51-57,1,3,small,kitchen,sponge.png,scaled,misscaled,0,zo,laundromat,l1_zo.png,0,0,zi,bathroom,b1_zi.png,none,0,2005,71341,204793,40,Man
468374,OSS,v7,1536,714,1536,864,2-15-2023,11-51-57,1,4,large,kitchen,toaster.png,scaled,misscaled,0,zi,classroom,c1_zi.png,0,0,zo,laundromat,l0_zo.png,m,1,1089,71341,204793,40,Man
468374,OSS,v7,1536,714,1536,864,2-15-2023,11-51-57,1,5,small,classroom,binderclip.png,scaled,scaled,0,zi,laundromat,l2_zi.png,1,0,zi,bathroom,b2_zi.png,m,1,1164,71341,204793,40,Man
468374,OSS,v7,1536,714,1536,864,2-15-2023,11-51-57,1,6,large,bathroom,hairdryer.png,misscaled,scaled,1,zo,bathroom,b1_zo.png,0,0,zi,laundromat,l4_zi.png,m,1,1532,71341,204793,40,Man
468374,OSS,v7,1536,714,1536,864,2-15-2023,11-51-57,1,7,large,classroom,computer.png,scaled,scaled,0,zo,bathroom,b3_zo.png,1,1,zo,bathroom,b2_zo.png,c,1,1151,71341,204793,40,Man
468374,OSS,v7,1536,714,1536,864,2-15-2023,11-51-57,1,8,small,laundromat,socks.png,misscaled,misscaled,0,zo,classroom,c4_zo.png,1,1,zo,classroom,c5_zo.png,c,1,1267,71341,204793,40,Man
468374,OSS,v7,1536,714,1536,864,2-15-2023,11-51-57,1,9,small,classroom,paperclip.png,scaled,misscaled,1,zo,classroom,c3_zo.png,0,1,zi,classroom,c2_zi.png,c,1,900,71341,204793,40,Man
468374,OSS,v7,1536,714,1536,864,2-15-2023,11-51-57,1,10,large,laundromat,detergent.png,misscaled,misscaled,1,zi,laundromat,l1_zi.png,1,1,zi,laundromat,l3_zi.png,c,1,1121,71341,204793,40,Man
468374,OSS,v7,1536,714,1536,864,2-15-2023,11-51-57,1,11,small,classroom,eraser.png,misscaled,scaled,0,zi,laundromat,l5_zi.png,0,1,zo,laundromat,l4_zo.png,c,1,1060,71341,204793,40,Man
468374,OSS,v7,1536,714,1536,864,2-15-2023,11-51-57,1,12,large,kitchen,kettle.png,scaled,misscaled,1,zi,kitchen,k5_zi.png,0,0,zo,classroom,c0_zo.png,c,0,909,71341,204793,40,Man
468374,OSS,v7,1536,714,1536,864,2-15-2023,11-51-57,1,13,large,classroom,notebook.png,scaled,scaled,0,zo,kitchen,k4_zo.png,1,0,zo,bathroom,b0_zo.png,m,1,1166,71341,204793,40,Man
468374,OSS,v7,1536,714,1536,864,2-15-2023,11-51-57,1,14,small,bathroom,lipstick.png,misscaled,scaled,1,zi,bathroom,b5_zi.png,0,0,zo,classroom,c1_zo.png,m,1,1032,71341,204793,40,Man
468374,OSS,v7,1536,714,1536,864,2-15-2023,11-51-57,1,15,small,kitchen,saltshaker.png,scaled,misscaled,1,zo,kitchen,k5_zo.png,0,0,zi,laundromat,l0_zi.png,m,1,977,71341,204793,40,Man
964526,OSS,v7,1366,625,1366,768,2-15-2023,12-13-47,1,0,large,bathroom,hairdryer.png,misscaled,misscaled,0,zi,kitchen,k2_zi.png,1,1,zi,kitchen,k3_zi.png,c,1,1289,69232,539248,39,Woman
964526,OSS,v7,1366,625,1366,768,2-15-2023,12-13-47,1,1,small,classroom,paperclip.png,scaled,scaled,1,zi,classroom,c3_zi.png,1,0,zi,laundromat,l2_zi.png,m,1,1045,69232,539248,39,Woman
964526,OSS,v7,1366,625,1366,768,2-15-2023,12-13-47,1,2,small,classroom,eraser.png,misscaled,scaled,1,zi,classroom,c2_zi.png,0,1,zo,classroom,c4_zo.png,c,1,1112,69232,539248,39,Woman
964526,OSS,v7,1366,625,1366,768,2-15-2023,12-13-47,1,3,small,laundromat,coins.png,misscaled,scaled,0,zi,classroom,c5_zi.png,0,0,zo,bathroom,b3_zo.png,m,1,904,69232,539248,39,Woman
964526,OSS,v7,1366,625,1366,768,2-15-2023,12-13-47,1,4,large,bathroom,tissuebox.png,misscaled,scaled,0,zo,kitchen,k2_zo.png,0,0,zi,classroom,c4_zi.png,m,1,1191,69232,539248,39,Woman
964526,OSS,v7,1366,625,1366,768,2-15-2023,12-13-47,1,5,large,kitchen,toaster.png,misscaled,scaled,1,zo,kitchen,k3_zo.png,0,0,zi,laundromat,l1_zi.png,m,1,1248,69232,539248,39,Woman
964526,OSS,v7,1366,625,1366,768,2-15-2023,12-13-47,1,6,large,laundromat,shirt.png,scaled,scaled,0,zo,kitchen,k1_zo.png,1,1,zo,kitchen,k5_zo.png,c,1,1107,69232,539248,39,Woman
964526,OSS,v7,1366,625,1366,768,2-15-2023,12-13-47,1,7,small,classroom,binderclip.png,misscaled,misscaled,1,zo,classroom,c3_zo.png,1,0,zo,laundromat,l2_zo.png,m,1,1099,69232,539248,39,Woman
964526,OSS,v7,1366,625,1366,768,2-15-2023,12-13-47,1,8,large,classroom,notebook.png,misscaled,misscaled,1,zi,classroom,c0_zi.png,1,0,zi,bathroom,b3_zi.png,m,1,1049,69232,539248,39,Woman
964526,OSS,v7,1366,625,1366,768,2-15-2023,12-13-47,1,9,small,kitchen,sponge.png,misscaled,misscaled,0,zo,bathroom,b5_zo.png,1,1,zo,bathroom,b1_zo.png,c,1,1214,69232,539248,39,Woman
964526,OSS,v7,1366,625,1366,768,2-15-2023,12-13-47,1,10,small,kitchen,spoon.png,misscaled,scaled,0,zi,laundromat,l0_zi.png,0,0,zo,classroom,c2_zo.png,m,1,1260,69232,539248,39,Woman
964526,OSS,v7,1366,625,1366,768,2-15-2023,12-13-47,1,11,large,kitchen,pot.png,misscaled,misscaled,1,zi,kitchen,k0_zi.png,1,0,zi,laundromat,l4_zi.png,m,1,1219,69232,539248,39,Woman
964526,OSS,v7,1366,625,1366,768,2-15-2023,12-13-47,1,12,large,laundromat,shorts.png,misscaled,scaled,1,zo,laundromat,l4_zo.png,0,0,zi,classroom,c1_zi.png,m,1,1233,69232,539248,39,Woman
964526,OSS,v7,1366,625,1366,768,2-15-2023,12-13-47,1,13,small,laundromat,tidepod.png,misscaled,misscaled,1,zo,laundromat,l0_zo.png,1,0,zo,classroom,c0_zo.png,m,1,1045,69232,539248,39,Woman
964526,OSS,v7,1366,625,1366,768,2-15-2023,12-13-47,1,14,small,laundromat,socks.png,scaled,misscaled,0,zo,classroom,c5_zo.png,0,0,zi,bathroom,b5_zi.png,c,0,1209,69232,539248,39,Woman
964526,OSS,v7,1366,625,1366,768,2-15-2023,12-13-47,1,15,large,bathroom,loofah.png,scaled,misscaled,0,zi,kitchen,k1_zi.png,0,0,zo,classroom,c1_zo.png,m,1,961,69232,539248,39,Woman
826833,OSS,v7,1366,657,1366,768,2-16-2023,12-40-57,2,0,large,classroom,powerstrip.png,misscaled,misscaled,0,zi,bathroom,b4_zi.png,1,1,zi,bathroom,b5_zi.png,c,1,988,63551,319486,40,Man
826833,OSS,v7,1366,657,1366,768,2-16-2023,12-40-57,2,1,large,laundromat,detergent.png,scaled,scaled,0,zo,bathroom,b4_zo.png,1,0,zo,classroom,c4_zo.png,m,1,735,63551,319486,40,Man
826833,OSS,v7,1366,657,1366,768,2-16-2023,12-40-57,2,2,large,laundromat,shirt.png,scaled,scaled,0,zo,classroom,c5_zo.png,1,1,zo,classroom,c3_zo.png,c,1,609,63551,319486,40,Man
826833,OSS,v7,1366,657,1366,768,2-16-2023,12-40-57,2,3,small,laundromat,tidepod.png,scaled,misscaled,0,zo,kitchen,k3_zo.png,0,0,zi,bathroom,b0_zi.png,m,1,905,63551,319486,40,Man
826833,OSS,v7,1366,657,1366,768,2-16-2023,12-40-57,2,4,large,kitchen,kettle.png,misscaled,scaled,1,zo,kitchen,k1_zo.png,0,0,zi,laundromat,l2_zi.png,m,1,772,63551,319486,40,Man
826833,OSS,v7,1366,657,1366,768,2-16-2023,12-40-57,2,5,small,bathroom,floss.png,scaled,scaled,0,zi,laundromat,l4_zi.png,1,1,zi,laundromat,l5_zi.png,c,1,586,63551,319486,40,Man
826833,OSS,v7,1366,657,1366,768,2-16-2023,12-40-57,2,6,small,classroom,paperclip.png,misscaled,scaled,0,zi,laundromat,l3_zi.png,0,1,zo,laundromat,l0_zo.png,c,1,709,63551,319486,40,Man
826833,OSS,v7,1366,657,1366,768,2-16-2023,12-40-57,2,7,small,laundromat,coins.png,scaled,scaled,1,zi,laundromat,l0_zi.png,1,1,zi,laundromat,l1_zi.png,c,1,551,63551,319486,40,Man
826833,OSS,v7,1366,657,1366,768,2-16-2023,12-40-57,2,8,small,classroom,binderclip.png,misscaled,misscaled,0,zo,kitchen,k0_zo.png,1,0,zo,laundromat,l1_zo.png,m,1,678,63551,319486,40,Man
826833,OSS,v7,1366,657,1366,768,2-16-2023,12-40-57,2,9,large,laundromat,shorts.png,misscaled,scaled,1,zo,laundromat,l2_zo.png,0,0,zi,bathroom,b2_zi.png,m,1,1029,63551,319486,40,Man
826833,OSS,v7,1366,657,1366,768,2-16-2023,12-40-57,2,10,small,laundromat,socks.png,misscaled,misscaled,1,zo,laundromat,l5_zo.png,1,1,zo,laundromat,l4_zo.png,c,1,700,63551,319486,40,Man
826833,OSS,v7,1366,657,1366,768,2-16-2023,12-40-57,2,11,large,classroom,notebook.png,misscaled,misscaled,1,zi,classroom,c3_zi.png,1,1,zi,classroom,c5_zi.png,c,1,826,63551,319486,40,Man
826833,OSS,v7,1366,657,1366,768,2-16-2023,12-40-57,2,12,small,classroom,eraser.png,misscaled,misscaled,1,zo,classroom,c0_zo.png,1,0,zo,bathroom,b5_zo.png,m,1,682,63551,319486,40,Man
826833,OSS,v7,1366,657,1366,768,2-16-2023,12-40-57,2,13,large,kitchen,pot.png,misscaled,misscaled,0,zi,bathroom,b3_zi.png,1,0,zi,classroom,c0_zi.png,m,1,760,63551,319486,40,Man
826833,OSS,v7,1366,657,1366,768,2-16-2023,12-40-57,2,14,small,bathroom,lipstick.png,misscaled,scaled,1,zi,bathroom,b1_zi.png,0,0,zo,kitchen,k2_zo.png,c,0,1077,63551,319486,40,Man
826833,OSS,v7,1366,657,1366,768,2-16-2023,12-40-57,2,15,large,kitchen,toaster.png,scaled,misscaled,1,zi,kitchen,k0_zi.png,0,0,zo,classroom,c1_zo.png,m,1,838,63551,319486,40,Man
546965,OSS,v7,3840,2009,3840,2160,2-15-2023,12-11-52,3,0,small,laundromat,tidepod.png,scaled,scaled,0,zi,kitchen,k3_zi.png,1,0,zi,bathroom,b4_zi.png,c,0,1316,70799,301394,47,Man
546965,OSS,v7,3840,2009,3840,2160,2-15-2023,12-11-52,3,1,large,bathroom,hairdryer.png,scaled,misscaled,1,zi,bathroom,b5_zi.png,0,1,zo,bathroom,b4_zo.png,c,1,1066,70799,301394,47,Man
546965,OSS,v7,3840,2009,3840,2160,2-15-2023,12-11-52,3,2,large,kitchen,pot.png,misscaled,misscaled,0,zi,classroom,c5_zi.png,1,0,zi,bathroom,b3_zi.png,m,1,1087,70799,301394,47,Man
546965,OSS,v7,3840,2009,3840,2160,2-15-2023,12-11-52,3,3,large,bathroom,loofah.png,misscaled,scaled,0,zo,classroom,c4_zo.png,0,0,zi,kitchen,k0_zi.png,m,1,1019,70799,301394,47,Man
546965,OSS,v7,3840,2009,3840,2160,2-15-2023,12-11-52,3,4,large,laundromat,shirt.png,misscaled,scaled,1,zo,laundromat,l1_zo.png,0,0,zi,bathroom,b1_zi.png,m,1,1421,70799,301394,47,Man
546965,OSS,v7,3840,2009,3840,2160,2-15-2023,12-11-52,3,5,small,classroom,binderclip.png,scaled,misscaled,0,zo,kitchen,k0_zo.png,0,1,zi,kitchen,k4_zi.png,c,1,1313,70799,301394,47,Man
546965,OSS,v7,3840,2009,3840,2160,2-15-2023,12-11-52,3,6,large,laundromat,detergent.png,misscaled,scaled,1,zo,laundromat,l5_zo.png,0,1,zi,laundromat,l4_zi.png,c,1,1042,70799,301394,47,Man
546965,OSS,v7,3840,2009,3840,2160,2-15-2023,12-11-52,3,7,small,bathroom,nailclipper.png,scaled,scaled,1,zi,bathroom,b0_zi.png,1,0,zi,kitchen,k5_zi.png,m,1,1498,70799,301394,47,Man
546965,OSS,v7,3840,2009,3840,2160,2-15-2023,12-11-52,3,8,large,classroom,notebook.png,misscaled,misscaled,0,zi,laundromat,l2_zi.png,1,1,zi,laundromat,l5_zi.png,c,1,976,70799,301394,47,Man
546965,OSS,v7,3840,2009,3840,2160,2-15-2023,12-11-52,3,9,small,kitchen,sponge.png,scaled,scaled,1,zi,kitchen,k1_zi.png,1,0,zi,laundromat,l1_zi.png,m,1,1369,70799,301394,47,Man
546965,OSS,v7,3840,2009,3840,2160,2-15-2023,12-11-52,3,10,small,laundromat,socks.png,misscaled,misscaled,1,zo,laundromat,l3_zo.png,1,1,zo,laundromat,l2_zo.png,c,1,1094,70799,301394,47,Man
546965,OSS,v7,3840,2009,3840,2160,2-15-2023,12-11-52,3,11,small,kitchen,saltshaker.png,misscaled,misscaled,1,zo,kitchen,k2_zo.png,1,1,zo,kitchen,k5_zo.png,c,1,1540,70799,301394,47,Man
546965,OSS,v7,3840,2009,3840,2160,2-15-2023,12-11-52,3,12,large,laundromat,shorts.png,misscaled,scaled,0,zo,bathroom,b1_zo.png,0,1,zi,bathroom,b2_zi.png,c,1,1440,70799,301394,47,Man
546965,OSS,v7,3840,2009,3840,2160,2-15-2023,12-11-52,3,13,small,classroom,paperclip.png,misscaled,scaled,0,zi,kitchen,k2_zi.png,0,0,zo,bathroom,b2_zo.png,m,1,1369,70799,301394,47,Man
546965,OSS,v7,3840,2009,3840,2160,2-15-2023,12-11-52,3,14,small,classroom,eraser.png,misscaled,misscaled,0,zo,kitchen,k1_zo.png,1,1,zo,kitchen,k4_zo.png,c,1,1160,70799,301394,47,Man
546965,OSS,v7,3840,2009,3840,2160,2-15-2023,12-11-52,3,15,large,classroom,computer.png,misscaled,misscaled,1,zi,classroom,c2_zi.png,1,1,zi,classroom,c4_zi.png,c,1,1088,70799,301394,47,Man
784455,OSS,v7,1319,657,1366,768,2-16-2023,18-11-54,3,0,large,kitchen,kettle.png,misscaled,misscaled,0,zi,laundromat,l0_zi.png,1,0,zi,bathroom,b2_zi.png,m,1,1241,67777,219233,48,Woman
784455,OSS,v7,1319,657,1366,768,2-16-2023,18-11-54,3,1,small,kitchen,spoon.png,misscaled,scaled,1,zi,kitchen,k5_zi.png,0,1,zo,kitchen,k1_zo.png,c,1,1412,67777,219233,48,Woman
784455,OSS,v7,1319,657,1366,768,2-16-2023,18-11-54,3,2,large,classroom,computer.png,misscaled,misscaled,1,zi,classroom,c3_zi.png,1,1,zi,classroom,c0_zi.png,c,1,1190,67777,219233,48,Woman
784455,OSS,v7,1319,657,1366,768,2-16-2023,18-11-54,3,3,large,bathroom,hairdryer.png,scaled,misscaled,0,zi,classroom,c4_zi.png,0,0,zo,kitchen,k5_zo.png,m,1,598,67777,219233,48,Woman
784455,OSS,v7,1319,657,1366,768,2-16-2023,18-11-54,3,4,small,classroom,eraser.png,scaled,misscaled,0,zo,laundromat,l0_zo.png,0,1,zi,laundromat,l3_zi.png,c,1,1174,67777,219233,48,Woman
784455,OSS,v7,1319,657,1366,768,2-16-2023,18-11-54,3,5,large,laundromat,shorts.png,misscaled,scaled,0,zo,bathroom,b4_zo.png,0,0,zi,kitchen,k3_zi.png,m,1,960,67777,219233,48,Woman
784455,OSS,v7,1319,657,1366,768,2-16-2023,18-11-54,3,6,small,laundromat,coins.png,scaled,scaled,0,zi,bathroom,b4_zi.png,1,1,zi,bathroom,b1_zi.png,c,1,742,67777,219233,48,Woman
784455,OSS,v7,1319,657,1366,768,2-16-2023,18-11-54,3,7,small,classroom,paperclip.png,misscaled,misscaled,0,zo,laundromat,l1_zo.png,1,1,zo,laundromat,l3_zo.png,c,1,650,67777,219233,48,Woman
784455,OSS,v7,1319,657,1366,768,2-16-2023,18-11-54,3,8,small,classroom,binderclip.png,misscaled,misscaled,1,zo,classroom,c5_zo.png,1,0,zo,laundromat,l5_zo.png,m,1,1342,67777,219233,48,Woman
784455,OSS,v7,1319,657,1366,768,2-16-2023,18-11-54,3,9,small,kitchen,sponge.png,scaled,scaled,1,zi,kitchen,k0_zi.png,1,0,zi,laundromat,l1_zi.png,c,0,686,67777,219233,48,Woman
784455,OSS,v7,1319,657,1366,768,2-16-2023,18-11-54,3,10,large,classroom,notebook.png,misscaled,misscaled,1,zi,classroom,c2_zi.png,1,1,zi,classroom,c1_zi.png,c,1,1012,67777,219233,48,Woman
784455,OSS,v7,1319,657,1366,768,2-16-2023,18-11-54,3,11,small,bathroom,nailclipper.png,scaled,scaled,0,zi,kitchen,k2_zi.png,1,0,zi,classroom,c5_zi.png,m,1,1297,67777,219233,48,Woman
784455,OSS,v7,1319,657,1366,768,2-16-2023,18-11-54,3,12,large,classroom,powerstrip.png,misscaled,scaled,0,zo,laundromat,l4_zo.png,0,0,zi,kitchen,k4_zi.png,c,0,898,67777,219233,48,Woman
784455,OSS,v7,1319,657,1366,768,2-16-2023,18-11-54,3,13,large,laundromat,shirt.png,scaled,scaled,1,zo,laundromat,l2_zo.png,1,0,zo,kitchen,k4_zo.png,c,0,647,67777,219233,48,Woman
784455,OSS,v7,1319,657,1366,768,2-16-2023,18-11-54,3,14,large,bathroom,tissuebox.png,misscaled,scaled,1,zo,bathroom,b2_zo.png,0,0,zi,laundromat,l2_zi.png,m,1,1007,67777,219233,48,Woman
784455,OSS,v7,1319,657,1366,768,2-16-2023,18-11-54,3,15,small,bathroom,floss.png,misscaled,misscaled,1,zo,bathroom,b5_zo.png,1,1,zo,bathroom,b0_zo.png,c,1,740,67777,219233,48,Woman
197946,OSS,v7,2048,1002,2048,1152,2-15-2023,12-7-17,3,0,small,classroom,paperclip.png,misscaled,misscaled,1,zo,classroom,c4_zo.png,1,0,zo,bathroom,b2_zo.png,c,0,672,66745,219441,27,Man
197946,OSS,v7,2048,1002,2048,1152,2-15-2023,12-7-17,3,1,large,laundromat,shorts.png,scaled,scaled,1,zo,laundromat,l5_zo.png,1,1,zo,laundromat,l0_zo.png,c,1,805,66745,219441,27,Man
197946,OSS,v7,2048,1002,2048,1152,2-15-2023,12-7-17,3,2,large,laundromat,shirt.png,misscaled,scaled,0,zo,bathroom,b4_zo.png,0,0,zi,classroom,c3_zi.png,m,1,886,66745,219441,27,Man
197946,OSS,v7,2048,1002,2048,1152,2-15-2023,12-7-17,3,3,small,kitchen,spoon.png,misscaled,misscaled,0,zo,bathroom,b3_zo.png,1,0,zo,laundromat,l3_zo.png,m,1,997,66745,219441,27,Man
197946,OSS,v7,2048,1002,2048,1152,2-15-2023,12-7-17,3,4,small,bathroom,nailclipper.png,scaled,misscaled,0,zo,classroom,c0_zo.png,0,0,zi,laundromat,l3_zi.png,m,1,690,66745,219441,27,Man
197946,OSS,v7,2048,1002,2048,1152,2-15-2023,12-7-17,3,5,large,kitchen,toaster.png,scaled,misscaled,1,zi,kitchen,k0_zi.png,0,0,zo,classroom,c2_zo.png,c,0,949,66745,219441,27,Man
197946,OSS,v7,2048,1002,2048,1152,2-15-2023,12-7-17,3,6,small,kitchen,saltshaker.png,misscaled,scaled,1,zi,kitchen,k1_zi.png,0,1,zo,kitchen,k0_zo.png,c,1,1148,66745,219441,27,Man
197946,OSS,v7,2048,1002,2048,1152,2-15-2023,12-7-17,3,7,small,bathroom,lipstick.png,misscaled,misscaled,1,zo,bathroom,b1_zo.png,1,0,zo,classroom,c3_zo.png,m,1,767,66745,219441,27,Man
197946,OSS,v7,2048,1002,2048,1152,2-15-2023,12-7-17,3,8,large,kitchen,kettle.png,scaled,scaled,0,zo,bathroom,b5_zo.png,1,0,zo,classroom,c1_zo.png,m,1,1091,66745,219441,27,Man
197946,OSS,v7,2048,1002,2048,1152,2-15-2023,12-7-17,3,9,small,classroom,eraser.png,misscaled,scaled,1,zi,classroom,c0_zi.png,0,1,zo,classroom,c5_zo.png,c,1,1105,66745,219441,27,Man
197946,OSS,v7,2048,1002,2048,1152,2-15-2023,12-7-17,3,10,small,classroom,binderclip.png,misscaled,scaled,0,zi,laundromat,l4_zi.png,0,1,zo,laundromat,l1_zo.png,c,1,925,66745,219441,27,Man
197946,OSS,v7,2048,1002,2048,1152,2-15-2023,12-7-17,3,11,large,bathroom,tissuebox.png,misscaled,misscaled,0,zi,laundromat,l1_zi.png,1,0,zi,kitchen,k5_zi.png,c,0,793,66745,219441,27,Man
197946,OSS,v7,2048,1002,2048,1152,2-15-2023,12-7-17,3,12,small,kitchen,sponge.png,scaled,scaled,0,zi,classroom,c4_zi.png,1,0,zi,bathroom,b4_zi.png,m,1,1035,66745,219441,27,Man
197946,OSS,v7,2048,1002,2048,1152,2-15-2023,12-7-17,3,13,large,bathroom,hairdryer.png,misscaled,misscaled,1,zi,bathroom,b3_zi.png,1,0,zi,laundromat,l5_zi.png,c,0,865,66745,219441,27,Man
197946,OSS,v7,2048,1002,2048,1152,2-15-2023,12-7-17,3,14,large,bathroom,loofah.png,misscaled,misscaled,0,zi,classroom,c2_zi.png,1,1,zi,classroom,c5_zi.png,c,1,535,66745,219441,27,Man
197946,OSS,v7,2048,1002,2048,1152,2-15-2023,12-7-17,3,15,large,kitchen,pot.png,scaled,scaled,1,zo,kitchen,k2_zo.png,1,1,zo,kitchen,k5_zo.png,c,1,905,66745,219441,27,Man
165503,OSS,v7,1366,617,1366,768,2-15-2023,9-54-48,3,0,large,kitchen,toaster.png,scaled,scaled,0,zo,bathroom,b3_zo.png,1,0,zo,classroom,c5_zo.png,m,1,956,66764,238674,35,Woman
165503,OSS,v7,1366,617,1366,768,2-15-2023,9-54-48,3,1,small,bathroom,lipstick.png,misscaled,scaled,1,zi,bathroom,b0_zi.png,0,1,zo,bathroom,b1_zo.png,c,1,1301,66764,238674,35,Woman
165503,OSS,v7,1366,617,1366,768,2-15-2023,9-54-48,3,2,small,bathroom,nailclipper.png,scaled,misscaled,0,zo,classroom,c0_zo.png,0,1,zi,classroom,c2_zi.png,c,1,832,66764,238674,35,Woman
165503,OSS,v7,1366,617,1366,768,2-15-2023,9-54-48,3,3,small,classroom,binderclip.png,misscaled,scaled,0,zi,bathroom,b3_zi.png,0,0,zo,laundromat,l4_zo.png,m,1,1027,66764,238674,35,Woman
165503,OSS,v7,1366,617,1366,768,2-15-2023,9-54-48,3,4,large,bathroom,hairdryer.png,misscaled,misscaled,1,zi,bathroom,b4_zi.png,1,1,zi,bathroom,b5_zi.png,c,1,924,66764,238674,35,Woman
165503,OSS,v7,1366,617,1366,768,2-15-2023,9-54-48,3,5,small,classroom,paperclip.png,misscaled,misscaled,0,zo,laundromat,l2_zo.png,1,0,zo,kitchen,k1_zo.png,c,0,1036,66764,238674,35,Woman
165503,OSS,v7,1366,617,1366,768,2-15-2023,9-54-48,3,6,large,bathroom,loofah.png,misscaled,scaled,0,zo,laundromat,l0_zo.png,0,1,zi,laundromat,l2_zi.png,c,1,1767,66764,238674,35,Woman
165503,OSS,v7,1366,617,1366,768,2-15-2023,9-54-48,3,7,large,laundromat,detergent.png,misscaled,misscaled,1,zi,laundromat,l4_zi.png,1,0,zi,kitchen,k2_zi.png,m,1,1072,66764,238674,35,Woman
165503,OSS,v7,1366,617,1366,768,2-15-2023,9-54-48,3,8,small,kitchen,saltshaker.png,misscaled,misscaled,1,zo,kitchen,k0_zo.png,1,1,zo,kitchen,k4_zo.png,c,1,768,66764,238674,35,Woman
165503,OSS,v7,1366,617,1366,768,2-15-2023,9-54-48,3,9,small,laundromat,coins.png,scaled,misscaled,1,zo,laundromat,l3_zo.png,0,0,zi,kitchen,k1_zi.png,m,1,800,66764,238674,35,Woman
165503,OSS,v7,1366,617,1366,768,2-15-2023,9-54-48,3,10,large,kitchen,kettle.png,misscaled,misscaled,0,zi,classroom,c1_zi.png,1,1,zi,classroom,c4_zi.png,c,1,843,66764,238674,35,Woman
165503,OSS,v7,1366,617,1366,768,2-15-2023,9-54-48,3,11,small,laundromat,tidepod.png,misscaled,scaled,0,zi,kitchen,k0_zi.png,0,1,zo,kitchen,k3_zo.png,c,1,1180,66764,238674,35,Woman
165503,OSS,v7,1366,617,1366,768,2-15-2023,9-54-48,3,12,large,kitchen,pot.png,misscaled,scaled,1,zo,kitchen,k5_zo.png,0,1,zi,kitchen,k4_zi.png,c,1,684,66764,238674,35,Woman
165503,OSS,v7,1366,617,1366,768,2-15-2023,9-54-48,3,13,small,bathroom,floss.png,scaled,scaled,1,zi,bathroom,b2_zi.png,1,1,zi,bathroom,b1_zi.png,c,1,626,66764,238674,35,Woman
165503,OSS,v7,1366,617,1366,768,2-15-2023,9-54-48,3,14,large,bathroom,tissuebox.png,misscaled,misscaled,0,zi,classroom,c0_zi.png,1,1,zi,classroom,c5_zi.png,c,1,629,66764,238674,35,Woman
165503,OSS,v7,1366,617,1366,768,2-15-2023,9-54-48,3,15,large,laundromat,shirt.png,scaled,scaled,1,zo,laundromat,l5_zo.png,1,0,zo,kitchen,k2_zo.png,m,1,1320,66764,238674,35,Woman
893162,OSS,v7,1440,768,1440,1080,2-16-2023,16-7-5,3,0,small,classroom,eraser.png,scaled,scaled,0,zi,kitchen,k2_zi.png,1,1,zi,kitchen,k4_zi.png,none,0,2006,75501,332731,66,Man
893162,OSS,v7,1440,768,1440,1080,2-16-2023,16-7-5,3,1,small,bathroom,floss.png,scaled,misscaled,1,zo,bathroom,b1_zo.png,0,1,zi,bathroom,b0_zi.png,c,1,1451,75501,332731,66,Man
893162,OSS,v7,1440,768,1440,1080,2-16-2023,16-7-5,3,2,small,classroom,paperclip.png,scaled,scaled,1,zi,classroom,c2_zi.png,1,1,zi,classroom,c0_zi.png,c,1,1450,75501,332731,66,Man
893162,OSS,v7,1440,768,1440,1080,2-16-2023,16-7-5,3,3,large,laundromat,detergent.png,misscaled,scaled,1,zo,laundromat,l3_zo.png,0,1,zi,laundromat,l1_zi.png,c,1,917,75501,332731,66,Man
893162,OSS,v7,1440,768,1440,1080,2-16-2023,16-7-5,3,4,large,classroom,computer.png,scaled,misscaled,0,zi,laundromat,l0_zi.png,0,1,zo,laundromat,l5_zo.png,c,1,784,75501,332731,66,Man
893162,OSS,v7,1440,768,1440,1080,2-16-2023,16-7-5,3,5,large,classroom,powerstrip.png,misscaled,misscaled,1,zi,classroom,c5_zi.png,1,1,zi,classroom,c1_zi.png,c,1,1384,75501,332731,66,Man
893162,OSS,v7,1440,768,1440,1080,2-16-2023,16-7-5,3,6,small,bathroom,nailclipper.png,misscaled,misscaled,0,zo,kitchen,k3_zo.png,1,0,zo,classroom,c0_zo.png,m,1,1157,75501,332731,66,Man
893162,OSS,v7,1440,768,1440,1080,2-16-2023,16-7-5,3,7,large,bathroom,hairdryer.png,scaled,scaled,0,zo,kitchen,k1_zo.png,1,0,zo,laundromat,l4_zo.png,none,0,2006,75501,332731,66,Man
893162,OSS,v7,1440,768,1440,1080,2-16-2023,16-7-5,3,8,small,kitchen,spoon.png,misscaled,misscaled,1,zo,kitchen,k5_zo.png,1,1,zo,kitchen,k0_zo.png,c,1,1785,75501,332731,66,Man
893162,OSS,v7,1440,768,1440,1080,2-16-2023,16-7-5,3,9,small,bathroom,lipstick.png,scaled,misscaled,0,zo,classroom,c5_zo.png,0,0,zi,kitchen,k5_zi.png,none,0,2009,75501,332731,66,Man
893162,OSS,v7,1440,768,1440,1080,2-16-2023,16-7-5,3,10,large,kitchen,toaster.png,scaled,misscaled,0,zi,laundromat,l5_zi.png,0,1,zo,laundromat,l2_zo.png,none,0,2002,75501,332731,66,Man
893162,OSS,v7,1440,768,1440,1080,2-16-2023,16-7-5,3,11,small,classroom,binderclip.png,misscaled,scaled,1,zi,classroom,c4_zi.png,0,0,zo,laundromat,l1_zo.png,m,1,1042,75501,332731,66,Man
893162,OSS,v7,1440,768,1440,1080,2-16-2023,16-7-5,3,12,large,classroom,notebook.png,misscaled,scaled,0,zo,laundromat,l0_zo.png,0,1,zi,laundromat,l4_zi.png,c,1,1018,75501,332731,66,Man
893162,OSS,v7,1440,768,1440,1080,2-16-2023,16-7-5,3,13,large,kitchen,kettle.png,scaled,scaled,1,zo,kitchen,k4_zo.png,1,1,zo,kitchen,k2_zo.png,c,1,1559,75501,332731,66,Man
893162,OSS,v7,1440,768,1440,1080,2-16-2023,16-7-5,3,14,small,laundromat,tidepod.png,misscaled,scaled,0,zi,classroom,c3_zi.png,0,1,zo,classroom,c4_zo.png,c,1,1251,75501,332731,66,Man
893162,OSS,v7,1440,768,1440,1080,2-16-2023,16-7-5,3,15,large,bathroom,loofah.png,misscaled,misscaled,1,zi,bathroom,b4_zi.png,1,1,zi,bathroom,b5_zi.png,c,1,1157,75501,332731,66,Man
695019,OSS,v7,1263,587,1280,720,2-16-2023,11-57-13,1,0,small,laundromat,coins.png,scaled,misscaled,1,zo,laundromat,l0_zo.png,0,1,zi,laundromat,l5_zi.png,c,1,623,61681,126750,41,Man
695019,OSS,v7,1263,587,1280,720,2-16-2023,11-57-13,1,1,large,kitchen,toaster.png,misscaled,scaled,1,zo,kitchen,k2_zo.png,0,0,zi,bathroom,b4_zi.png,m,1,757,61681,126750,41,Man
695019,OSS,v7,1263,587,1280,720,2-16-2023,11-57-13,1,2,small,bathroom,floss.png,misscaled,scaled,0,zi,kitchen,k2_zi.png,0,0,zo,laundromat,l2_zo.png,m,1,729,61681,126750,41,Man
695019,OSS,v7,1263,587,1280,720,2-16-2023,11-57-13,1,3,small,laundromat,socks.png,scaled,scaled,0,zi,kitchen,k3_zi.png,1,0,zi,classroom,c2_zi.png,c,0,645,61681,126750,41,Man
695019,OSS,v7,1263,587,1280,720,2-16-2023,11-57-13,1,4,small,kitchen,spoon.png,misscaled,scaled,1,zi,kitchen,k1_zi.png,0,0,zo,laundromat,l3_zo.png,m,1,821,61681,126750,41,Man
695019,OSS,v7,1263,587,1280,720,2-16-2023,11-57-13,1,5,large,kitchen,kettle.png,misscaled,misscaled,1,zi,kitchen,k5_zi.png,1,0,zi,bathroom,b3_zi.png,m,1,694,61681,126750,41,Man
695019,OSS,v7,1263,587,1280,720,2-16-2023,11-57-13,1,6,large,kitchen,pot.png,misscaled,scaled,0,zo,laundromat,l5_zo.png,0,1,zi,laundromat,l4_zi.png,c,1,689,61681,126750,41,Man
695019,OSS,v7,1263,587,1280,720,2-16-2023,11-57-13,1,7,large,classroom,notebook.png,scaled,scaled,0,zo,kitchen,k0_zo.png,1,1,zo,kitchen,k4_zo.png,c,1,662,61681,126750,41,Man
695019,OSS,v7,1263,587,1280,720,2-16-2023,11-57-13,1,8,large,bathroom,tissuebox.png,scaled,misscaled,1,zi,bathroom,b1_zi.png,0,1,zo,bathroom,b4_zo.png,c,1,787,61681,126750,41,Man
695019,OSS,v7,1263,587,1280,720,2-16-2023,11-57-13,1,9,large,laundromat,detergent.png,misscaled,scaled,1,zo,laundromat,l4_zo.png,0,0,zi,kitchen,k0_zi.png,m,1,522,61681,126750,41,Man
695019,OSS,v7,1263,587,1280,720,2-16-2023,11-57-13,1,10,small,bathroom,lipstick.png,scaled,misscaled,0,zo,kitchen,k1_zo.png,0,1,zi,kitchen,k4_zi.png,c,1,728,61681,126750,41,Man
695019,OSS,v7,1263,587,1280,720,2-16-2023,11-57-13,1,11,small,classroom,paperclip.png,scaled,scaled,1,zi,classroom,c5_zi.png,1,1,zi,classroom,c4_zi.png,c,1,643,61681,126750,41,Man
695019,OSS,v7,1263,587,1280,720,2-16-2023,11-57-13,1,12,small,kitchen,saltshaker.png,misscaled,misscaled,1,zo,kitchen,k3_zo.png,1,1,zo,kitchen,k5_zo.png,c,1,506,61681,126750,41,Man
695019,OSS,v7,1263,587,1280,720,2-16-2023,11-57-13,1,13,large,laundromat,shirt.png,misscaled,misscaled,0,zi,classroom,c0_zi.png,1,1,zi,classroom,c1_zi.png,c,1,531,61681,126750,41,Man
695019,OSS,v7,1263,587,1280,720,2-16-2023,11-57-13,1,14,small,bathroom,nailclipper.png,misscaled,misscaled,0,zo,laundromat,l1_zo.png,1,0,zo,classroom,c3_zo.png,m,1,698,61681,126750,41,Man
695019,OSS,v7,1263,587,1280,720,2-16-2023,11-57-13,1,15,large,laundromat,shorts.png,scaled,misscaled,0,zi,classroom,c3_zi.png,0,1,zo,classroom,c0_zo.png,c,1,594,61681,126750,41,Man
164328,OSS,v7,1920,969,1920,1080,2-16-2023,10-42-32,1,0,large,bathroom,tissuebox.png,scaled,misscaled,0,zi,laundromat,l5_zi.png,0,0,zo,kitchen,k3_zo.png,m,1,1081,65294,107099,46,Man
164328,OSS,v7,1920,969,1920,1080,2-16-2023,10-42-32,1,1,large,kitchen,kettle.png,misscaled,misscaled,0,zi,classroom,c4_zi.png,1,1,zi,classroom,c5_zi.png,c,1,1028,65294,107099,46,Man
164328,OSS,v7,1920,969,1920,1080,2-16-2023,10-42-32,1,2,large,bathroom,loofah.png,scaled,scaled,0,zo,kitchen,k2_zo.png,1,0,zo,laundromat,l3_zo.png,m,1,911,65294,107099,46,Man
164328,OSS,v7,1920,969,1920,1080,2-16-2023,10-42-32,1,3,large,bathroom,hairdryer.png,misscaled,misscaled,1,zi,bathroom,b0_zi.png,1,0,zi,kitchen,k3_zi.png,m,1,1036,65294,107099,46,Man
164328,OSS,v7,1920,969,1920,1080,2-16-2023,10-42-32,1,4,large,kitchen,toaster.png,scaled,scaled,1,zo,kitchen,k0_zo.png,1,1,zo,kitchen,k5_zo.png,c,1,1044,65294,107099,46,Man
164328,OSS,v7,1920,969,1920,1080,2-16-2023,10-42-32,1,5,small,bathroom,floss.png,scaled,scaled,1,zi,bathroom,b4_zi.png,1,0,zi,classroom,c3_zi.png,m,1,924,65294,107099,46,Man
164328,OSS,v7,1920,969,1920,1080,2-16-2023,10-42-32,1,6,small,kitchen,sponge.png,scaled,misscaled,0,zo,bathroom,b3_zo.png,0,0,zi,laundromat,l0_zi.png,m,1,976,65294,107099,46,Man
164328,OSS,v7,1920,969,1920,1080,2-16-2023,10-42-32,1,7,large,laundromat,detergent.png,scaled,misscaled,1,zi,laundromat,l1_zi.png,0,1,zo,laundromat,l0_zo.png,c,1,1052,65294,107099,46,Man
164328,OSS,v7,1920,969,1920,1080,2-16-2023,10-42-32,1,8,small,kitchen,saltshaker.png,scaled,misscaled,1,zo,kitchen,k1_zo.png,0,0,zi,classroom,c0_zi.png,m,1,740,65294,107099,46,Man
164328,OSS,v7,1920,969,1920,1080,2-16-2023,10-42-32,1,9,large,classroom,computer.png,misscaled,scaled,1,zo,classroom,c0_zo.png,0,0,zi,laundromat,l3_zi.png,m,1,908,65294,107099,46,Man
164328,OSS,v7,1920,969,1920,1080,2-16-2023,10-42-32,1,10,small,laundromat,socks.png,misscaled,scaled,0,zi,kitchen,k2_zi.png,0,1,zo,kitchen,k4_zo.png,c,1,747,65294,107099,46,Man
164328,OSS,v7,1920,969,1920,1080,2-16-2023,10-42-32,1,11,small,laundromat,coins.png,misscaled,misscaled,1,zo,laundromat,l1_zo.png,1,1,zo,laundromat,l4_zo.png,c,1,738,65294,107099,46,Man
164328,OSS,v7,1920,969,1920,1080,2-16-2023,10-42-32,1,12,large,kitchen,pot.png,scaled,scaled,0,zo,bathroom,b4_zo.png,1,1,zo,bathroom,b2_zo.png,c,1,1051,65294,107099,46,Man
164328,OSS,v7,1920,969,1920,1080,2-16-2023,10-42-32,1,13,small,laundromat,tidepod.png,scaled,scaled,1,zi,laundromat,l4_zi.png,1,1,zi,laundromat,l2_zi.png,c,1,907,65294,107099,46,Man
164328,OSS,v7,1920,969,1920,1080,2-16-2023,10-42-32,1,14,small,kitchen,spoon.png,scaled,scaled,0,zi,bathroom,b5_zi.png,1,1,zi,bathroom,b1_zi.png,c,1,883,65294,107099,46,Man
164328,OSS,v7,1920,969,1920,1080,2-16-2023,10-42-32,1,15,small,classroom,eraser.png,scaled,misscaled,0,zo,bathroom,b1_zo.png,0,1,zi,bathroom,b3_zi.png,c,1,764,65294,107099,46,Man
360628,OSS,v7,1536,746,1536,864,2-16-2023,12-40-7,2,0,small,classroom,paperclip.png,misscaled,scaled,0,zi,laundromat,l4_zi.png,0,0,zo,kitchen,k0_zo.png,m,1,1211,63698,175505,33,Man
360628,OSS,v7,1536,746,1536,864,2-16-2023,12-40-7,2,1,small,bathroom,nailclipper.png,scaled,scaled,0,zi,laundromat,l5_zi.png,1,0,zi,kitchen,k2_zi.png,m,1,776,63698,175505,33,Man
360628,OSS,v7,1536,746,1536,864,2-16-2023,12-40-7,2,2,small,classroom,eraser.png,misscaled,scaled,1,zi,classroom,c0_zi.png,0,1,zo,classroom,c4_zo.png,c,1,592,63698,175505,33,Man
360628,OSS,v7,1536,746,1536,864,2-16-2023,12-40-7,2,3,small,classroom,binderclip.png,misscaled,misscaled,0,zo,kitchen,k5_zo.png,1,1,zo,kitchen,k4_zo.png,m,0,694,63698,175505,33,Man
360628,OSS,v7,1536,746,1536,864,2-16-2023,12-40-7,2,4,small,laundromat,tidepod.png,misscaled,misscaled,1,zo,laundromat,l1_zo.png,1,0,zo,kitchen,k1_zo.png,m,1,892,63698,175505,33,Man
360628,OSS,v7,1536,746,1536,864,2-16-2023,12-40-7,2,5,large,bathroom,loofah.png,scaled,scaled,1,zo,bathroom,b3_zo.png,1,0,zo,laundromat,l0_zo.png,m,1,565,63698,175505,33,Man
360628,OSS,v7,1536,746,1536,864,2-16-2023,12-40-7,2,6,large,laundromat,shorts.png,scaled,misscaled,1,zi,laundromat,l3_zi.png,0,1,zo,laundromat,l4_zo.png,c,1,876,63698,175505,33,Man
360628,OSS,v7,1536,746,1536,864,2-16-2023,12-40-7,2,7,large,kitchen,kettle.png,misscaled,scaled,0,zo,bathroom,b2_zo.png,0,0,zi,laundromat,l0_zi.png,m,1,937,63698,175505,33,Man
360628,OSS,v7,1536,746,1536,864,2-16-2023,12-40-7,2,8,small,bathroom,lipstick.png,misscaled,misscaled,0,zo,classroom,c1_zo.png,1,1,zo,classroom,c0_zo.png,c,1,644,63698,175505,33,Man
360628,OSS,v7,1536,746,1536,864,2-16-2023,12-40-7,2,9,large,bathroom,tissuebox.png,misscaled,scaled,0,zo,kitchen,k3_zo.png,0,1,zi,kitchen,k1_zi.png,c,1,918,63698,175505,33,Man
360628,OSS,v7,1536,746,1536,864,2-16-2023,12-40-7,2,10,large,classroom,notebook.png,misscaled,misscaled,0,zi,bathroom,b0_zi.png,1,0,zi,kitchen,k0_zi.png,m,1,1036,63698,175505,33,Man
360628,OSS,v7,1536,746,1536,864,2-16-2023,12-40-7,2,11,small,laundromat,coins.png,misscaled,scaled,1,zi,laundromat,l2_zi.png,0,0,zo,classroom,c3_zo.png,m,1,778,63698,175505,33,Man
360628,OSS,v7,1536,746,1536,864,2-16-2023,12-40-7,2,12,large,kitchen,pot.png,misscaled,misscaled,1,zi,kitchen,k4_zi.png,1,1,zi,kitchen,k5_zi.png,c,1,719,63698,175505,33,Man
360628,OSS,v7,1536,746,1536,864,2-16-2023,12-40-7,2,13,large,bathroom,hairdryer.png,misscaled,misscaled,0,zi,laundromat,l1_zi.png,1,0,zi,classroom,c3_zi.png,m,1,779,63698,175505,33,Man
360628,OSS,v7,1536,746,1536,864,2-16-2023,12-40-7,2,14,large,laundromat,shirt.png,scaled,scaled,1,zo,laundromat,l2_zo.png,1,0,zo,kitchen,k2_zo.png,m,1,624,63698,175505,33,Man
360628,OSS,v7,1536,746,1536,864,2-16-2023,12-40-7,2,15,small,bathroom,floss.png,scaled,misscaled,1,zo,bathroom,b5_zo.png,0,1,zi,bathroom,b4_zi.png,m,0,570,63698,175505,33,Man
339421,OSS,v7,1440,789,1440,900,2-15-2023,10-2-28,2,0,large,laundromat,shorts.png,misscaled,misscaled,0,zi,bathroom,b4_zi.png,1,0,zi,classroom,c1_zi.png,m,1,951,65486,163177,37,Non-binary
339421,OSS,v7,1440,789,1440,900,2-15-2023,10-2-28,2,1,large,laundromat,shirt.png,misscaled,scaled,1,zo,laundromat,l2_zo.png,0,0,zi,bathroom,b0_zi.png,m,1,910,65486,163177,37,Non-binary
339421,OSS,v7,1440,789,1440,900,2-15-2023,10-2-28,2,2,large,classroom,notebook.png,misscaled,misscaled,1,zi,classroom,c0_zi.png,1,1,zi,classroom,c4_zi.png,c,1,1032,65486,163177,37,Non-binary
339421,OSS,v7,1440,789,1440,900,2-15-2023,10-2-28,2,3,large,kitchen,toaster.png,scaled,misscaled,0,zi,bathroom,b3_zi.png,0,0,zo,laundromat,l0_zo.png,m,1,1165,65486,163177,37,Non-binary
339421,OSS,v7,1440,789,1440,900,2-15-2023,10-2-28,2,4,large,bathroom,hairdryer.png,misscaled,misscaled,1,zi,bathroom,b1_zi.png,1,0,zi,laundromat,l2_zi.png,m,1,1164,65486,163177,37,Non-binary
339421,OSS,v7,1440,789,1440,900,2-15-2023,10-2-28,2,5,large,kitchen,pot.png,scaled,scaled,0,zo,classroom,c3_zo.png,1,0,zo,laundromat,l3_zo.png,m,1,732,65486,163177,37,Non-binary
339421,OSS,v7,1440,789,1440,900,2-15-2023,10-2-28,2,6,small,kitchen,spoon.png,scaled,misscaled,1,zo,kitchen,k3_zo.png,0,0,zi,classroom,c3_zi.png,m,1,629,65486,163177,37,Non-binary
339421,OSS,v7,1440,789,1440,900,2-15-2023,10-2-28,2,7,small,classroom,paperclip.png,misscaled,scaled,0,zi,bathroom,b2_zi.png,0,0,zo,kitchen,k1_zo.png,m,1,964,65486,163177,37,Non-binary
339421,OSS,v7,1440,789,1440,900,2-15-2023,10-2-28,2,8,large,kitchen,kettle.png,scaled,scaled,0,zo,bathroom,b2_zo.png,1,1,zo,bathroom,b1_zo.png,c,1,828,65486,163177,37,Non-binary
339421,OSS,v7,1440,789,1440,900,2-15-2023,10-2-28,2,9,small,kitchen,sponge.png,scaled,scaled,0,zi,bathroom,b5_zi.png,1,0,zi,classroom,c5_zi.png,m,1,646,65486,163177,37,Non-binary
339421,OSS,v7,1440,789,1440,900,2-15-2023,10-2-28,2,10,large,classroom,computer.png,scaled,scaled,1,zo,classroom,c4_zo.png,1,1,zo,classroom,c1_zo.png,m,0,618,65486,163177,37,Non-binary
339421,OSS,v7,1440,789,1440,900,2-15-2023,10-2-28,2,11,small,bathroom,lipstick.png,misscaled,misscaled,0,zo,classroom,c0_zo.png,1,1,zo,classroom,c2_zo.png,m,0,583,65486,163177,37,Non-binary
339421,OSS,v7,1440,789,1440,900,2-15-2023,10-2-28,2,12,small,laundromat,coins.png,misscaled,scaled,1,zi,laundromat,l1_zi.png,0,0,zo,kitchen,k0_zo.png,m,1,888,65486,163177,37,Non-binary
339421,OSS,v7,1440,789,1440,900,2-15-2023,10-2-28,2,13,small,bathroom,nailclipper.png,misscaled,misscaled,0,zo,kitchen,k4_zo.png,1,1,zo,kitchen,k2_zo.png,c,1,725,65486,163177,37,Non-binary
339421,OSS,v7,1440,789,1440,900,2-15-2023,10-2-28,2,14,small,laundromat,socks.png,misscaled,scaled,1,zi,laundromat,l0_zi.png,0,1,zo,laundromat,l4_zo.png,m,0,809,65486,163177,37,Non-binary
339421,OSS,v7,1440,789,1440,900,2-15-2023,10-2-28,2,15,small,classroom,binderclip.png,misscaled,misscaled,1,zo,classroom,c5_zo.png,1,0,zo,kitchen,k5_zo.png,m,1,805,65486,163177,37,Non-binary
916563,OSS,v7,1680,907,1680,1050,2-16-2023,12-1-16,1,0,small,classroom,binderclip.png,misscaled,scaled,1,zi,classroom,c0_zi.png,0,0,zo,kitchen,k1_zo.png,m,1,703,66087,187363,39,Woman
916563,OSS,v7,1680,907,1680,1050,2-16-2023,12-1-16,1,1,small,classroom,eraser.png,misscaled,misscaled,1,zo,classroom,c2_zo.png,1,0,zo,bathroom,b1_zo.png,c,0,727,66087,187363,39,Woman
916563,OSS,v7,1680,907,1680,1050,2-16-2023,12-1-16,1,2,large,kitchen,kettle.png,scaled,misscaled,1,zi,kitchen,k1_zi.png,0,1,zo,kitchen,k4_zo.png,c,1,1143,66087,187363,39,Woman
916563,OSS,v7,1680,907,1680,1050,2-16-2023,12-1-16,1,3,large,laundromat,detergent.png,scaled,scaled,0,zo,classroom,c1_zo.png,1,0,zo,kitchen,k3_zo.png,m,1,765,66087,187363,39,Woman
916563,OSS,v7,1680,907,1680,1050,2-16-2023,12-1-16,1,4,large,bathroom,hairdryer.png,misscaled,misscaled,1,zi,bathroom,b0_zi.png,1,0,zi,laundromat,l1_zi.png,m,1,1070,66087,187363,39,Woman
916563,OSS,v7,1680,907,1680,1050,2-16-2023,12-1-16,1,5,small,laundromat,coins.png,misscaled,misscaled,0,zo,bathroom,b3_zo.png,1,1,zo,bathroom,b0_zo.png,c,1,846,66087,187363,39,Woman
916563,OSS,v7,1680,907,1680,1050,2-16-2023,12-1-16,1,6,large,classroom,powerstrip.png,scaled,scaled,0,zo,kitchen,k0_zo.png,1,0,zo,bathroom,b2_zo.png,m,1,878,66087,187363,39,Woman
916563,OSS,v7,1680,907,1680,1050,2-16-2023,12-1-16,1,7,small,classroom,paperclip.png,misscaled,misscaled,0,zo,kitchen,k5_zo.png,1,1,zo,kitchen,k2_zo.png,c,1,806,66087,187363,39,Woman
916563,OSS,v7,1680,907,1680,1050,2-16-2023,12-1-16,1,8,small,bathroom,floss.png,misscaled,scaled,0,zi,classroom,c1_zi.png,0,1,zo,classroom,c3_zo.png,c,1,1006,66087,187363,39,Woman
916563,OSS,v7,1680,907,1680,1050,2-16-2023,12-1-16,1,9,large,laundromat,shorts.png,scaled,scaled,1,zo,laundromat,l5_zo.png,1,0,zo,bathroom,b4_zo.png,m,1,815,66087,187363,39,Woman
916563,OSS,v7,1680,907,1680,1050,2-16-2023,12-1-16,1,10,small,laundromat,tidepod.png,scaled,scaled,1,zi,laundromat,l3_zi.png,1,0,zi,bathroom,b1_zi.png,m,1,1127,66087,187363,39,Woman
916563,OSS,v7,1680,907,1680,1050,2-16-2023,12-1-16,1,11,small,kitchen,saltshaker.png,misscaled,scaled,0,zi,classroom,c2_zi.png,0,1,zo,classroom,c4_zo.png,c,1,607,66087,187363,39,Woman
916563,OSS,v7,1680,907,1680,1050,2-16-2023,12-1-16,1,12,large,laundromat,shirt.png,misscaled,misscaled,0,zi,kitchen,k2_zi.png,1,0,zi,bathroom,b4_zi.png,m,1,711,66087,187363,39,Woman
916563,OSS,v7,1680,907,1680,1050,2-16-2023,12-1-16,1,13,large,kitchen,toaster.png,misscaled,misscaled,0,zi,laundromat,l5_zi.png,1,1,zi,laundromat,l2_zi.png,m,0,752,66087,187363,39,Woman
916563,OSS,v7,1680,907,1680,1050,2-16-2023,12-1-16,1,14,large,classroom,computer.png,misscaled,scaled,1,zo,classroom,c0_zo.png,0,0,zi,laundromat,l0_zi.png,m,1,1126,66087,187363,39,Woman
916563,OSS,v7,1680,907,1680,1050,2-16-2023,12-1-16,1,15,small,laundromat,socks.png,scaled,misscaled,1,zo,laundromat,l2_zo.png,0,0,zi,kitchen,k5_zi.png,m,1,1536,66087,187363,39,Woman
454037,OSS,v7,1920,937,1920,1080,2-15-2023,11-41-5,2,0,large,bathroom,loofah.png,scaled,misscaled,0,zi,laundromat,l5_zi.png,0,0,zo,classroom,c0_zo.png,m,1,733,65476,187251,34,Man
454037,OSS,v7,1920,937,1920,1080,2-15-2023,11-41-5,2,1,small,bathroom,floss.png,scaled,misscaled,0,zo,laundromat,l3_zo.png,0,1,zi,laundromat,l4_zi.png,m,0,743,65476,187251,34,Man
454037,OSS,v7,1920,937,1920,1080,2-15-2023,11-41-5,2,2,large,kitchen,toaster.png,misscaled,misscaled,1,zi,kitchen,k0_zi.png,1,1,zi,kitchen,k5_zi.png,c,1,818,65476,187251,34,Man
454037,OSS,v7,1920,937,1920,1080,2-15-2023,11-41-5,2,3,large,classroom,computer.png,misscaled,scaled,1,zo,classroom,c2_zo.png,0,0,zi,laundromat,l1_zi.png,m,1,1007,65476,187251,34,Man
454037,OSS,v7,1920,937,1920,1080,2-15-2023,11-41-5,2,4,small,bathroom,nailclipper.png,misscaled,scaled,0,zi,classroom,c5_zi.png,0,1,zo,classroom,c4_zo.png,c,1,1078,65476,187251,34,Man
454037,OSS,v7,1920,937,1920,1080,2-15-2023,11-41-5,2,5,large,classroom,powerstrip.png,misscaled,scaled,1,zo,classroom,c5_zo.png,0,0,zi,laundromat,l3_zi.png,m,1,870,65476,187251,34,Man
454037,OSS,v7,1920,937,1920,1080,2-15-2023,11-41-5,2,6,large,classroom,notebook.png,misscaled,scaled,0,zo,kitchen,k1_zo.png,0,1,zi,kitchen,k4_zi.png,c,1,695,65476,187251,34,Man
454037,OSS,v7,1920,937,1920,1080,2-15-2023,11-41-5,2,7,small,laundromat,socks.png,misscaled,scaled,1,zi,laundromat,l2_zi.png,0,0,zo,classroom,c1_zo.png,m,1,920,65476,187251,34,Man
454037,OSS,v7,1920,937,1920,1080,2-15-2023,11-41-5,2,8,small,classroom,eraser.png,scaled,scaled,0,zi,laundromat,l0_zi.png,1,0,zi,bathroom,b3_zi.png,m,1,1075,65476,187251,34,Man
454037,OSS,v7,1920,937,1920,1080,2-15-2023,11-41-5,2,9,small,classroom,paperclip.png,scaled,misscaled,1,zo,classroom,c3_zo.png,0,1,zi,classroom,c4_zi.png,c,1,692,65476,187251,34,Man
454037,OSS,v7,1920,937,1920,1080,2-15-2023,11-41-5,2,10,small,classroom,binderclip.png,scaled,misscaled,0,zo,laundromat,l1_zo.png,0,0,zi,bathroom,b0_zi.png,m,1,878,65476,187251,34,Man
454037,OSS,v7,1920,937,1920,1080,2-15-2023,11-41-5,2,11,small,bathroom,lipstick.png,scaled,scaled,1,zi,bathroom,b2_zi.png,1,1,zi,bathroom,b1_zi.png,c,1,873,65476,187251,34,Man
454037,OSS,v7,1920,937,1920,1080,2-15-2023,11-41-5,2,12,large,laundromat,shirt.png,misscaled,misscaled,0,zi,bathroom,b4_zi.png,1,0,zi,kitchen,k1_zi.png,m,1,956,65476,187251,34,Man
454037,OSS,v7,1920,937,1920,1080,2-15-2023,11-41-5,2,13,small,kitchen,sponge.png,scaled,misscaled,1,zo,kitchen,k3_zo.png,0,0,zi,bathroom,b5_zi.png,c,0,921,65476,187251,34,Man
454037,OSS,v7,1920,937,1920,1080,2-15-2023,11-41-5,2,14,large,bathroom,tissuebox.png,scaled,scaled,0,zo,kitchen,k4_zo.png,1,1,zo,kitchen,k5_zo.png,c,1,885,65476,187251,34,Man
454037,OSS,v7,1920,937,1920,1080,2-15-2023,11-41-5,2,15,large,kitchen,pot.png,scaled,misscaled,1,zi,kitchen,k3_zi.png,0,1,zo,kitchen,k2_zo.png,c,1,778,65476,187251,34,Man
767690,OSS,v7,1823,1301,2560,1440,2-15-2023,8-16-20,1,0,large,bathroom,tissuebox.png,misscaled,misscaled,0,zi,classroom,c0_zi.png,1,1,zi,classroom,c1_zi.png,c,1,1763,63579,155143,39,Man
767690,OSS,v7,1823,1301,2560,1440,2-15-2023,8-16-20,1,1,large,bathroom,hairdryer.png,misscaled,scaled,1,zo,bathroom,b3_zo.png,0,0,zi,kitchen,k0_zi.png,m,1,961,63579,155143,39,Man
767690,OSS,v7,1823,1301,2560,1440,2-15-2023,8-16-20,1,2,small,bathroom,floss.png,misscaled,scaled,0,zi,kitchen,k2_zi.png,0,0,zo,laundromat,l4_zo.png,m,1,884,63579,155143,39,Man
767690,OSS,v7,1823,1301,2560,1440,2-15-2023,8-16-20,1,3,large,laundromat,shirt.png,scaled,misscaled,0,zi,classroom,c5_zi.png,0,1,zo,classroom,c3_zo.png,c,1,721,63579,155143,39,Man
767690,OSS,v7,1823,1301,2560,1440,2-15-2023,8-16-20,1,4,large,kitchen,pot.png,scaled,scaled,0,zo,classroom,c4_zo.png,1,1,zo,classroom,c2_zo.png,c,1,626,63579,155143,39,Man
767690,OSS,v7,1823,1301,2560,1440,2-15-2023,8-16-20,1,5,large,bathroom,loofah.png,scaled,misscaled,1,zi,bathroom,b4_zi.png,0,0,zo,classroom,c0_zo.png,m,1,829,63579,155143,39,Man
767690,OSS,v7,1823,1301,2560,1440,2-15-2023,8-16-20,1,6,small,laundromat,coins.png,misscaled,misscaled,1,zo,laundromat,l1_zo.png,1,1,zo,laundromat,l2_zo.png,c,1,619,63579,155143,39,Man
767690,OSS,v7,1823,1301,2560,1440,2-15-2023,8-16-20,1,7,small,kitchen,sponge.png,misscaled,misscaled,0,zo,laundromat,l3_zo.png,1,0,zo,classroom,c1_zo.png,m,1,494,63579,155143,39,Man
767690,OSS,v7,1823,1301,2560,1440,2-15-2023,8-16-20,1,8,small,kitchen,spoon.png,scaled,scaled,0,zi,laundromat,l3_zi.png,1,0,zi,bathroom,b1_zi.png,m,1,1051,63579,155143,39,Man
767690,OSS,v7,1823,1301,2560,1440,2-15-2023,8-16-20,1,9,small,bathroom,nailclipper.png,scaled,scaled,1,zi,bathroom,b0_zi.png,1,1,zi,bathroom,b2_zi.png,c,1,641,63579,155143,39,Man
767690,OSS,v7,1823,1301,2560,1440,2-15-2023,8-16-20,1,10,small,classroom,paperclip.png,scaled,misscaled,0,zo,bathroom,b0_zo.png,0,1,zi,bathroom,b3_zi.png,c,1,507,63579,155143,39,Man
767690,OSS,v7,1823,1301,2560,1440,2-15-2023,8-16-20,1,11,small,laundromat,tidepod.png,scaled,scaled,1,zi,laundromat,l2_zi.png,1,0,zi,classroom,c4_zi.png,m,1,886,63579,155143,39,Man
767690,OSS,v7,1823,1301,2560,1440,2-15-2023,8-16-20,1,12,large,classroom,notebook.png,misscaled,misscaled,1,zi,classroom,c2_zi.png,1,0,zi,bathroom,b5_zi.png,m,1,701,63579,155143,39,Man
767690,OSS,v7,1823,1301,2560,1440,2-15-2023,8-16-20,1,13,large,laundromat,detergent.png,scaled,scaled,0,zo,bathroom,b5_zo.png,1,0,zo,kitchen,k3_zo.png,m,1,958,63579,155143,39,Man
767690,OSS,v7,1823,1301,2560,1440,2-15-2023,8-16-20,1,14,large,kitchen,kettle.png,misscaled,scaled,1,zo,kitchen,k2_zo.png,0,1,zi,kitchen,k3_zi.png,c,1,745,63579,155143,39,Man
767690,OSS,v7,1823,1301,2560,1440,2-15-2023,8-16-20,1,15,small,bathroom,lipstick.png,misscaled,misscaled,1,zo,bathroom,b2_zo.png,1,0,zo,laundromat,l0_zo.png,m,1,640,63579,155143,39,Man
459432,OSS,v7,1536,746,1536,864,2-15-2023,9-54-18,1,0,small,kitchen,spoon.png,scaled,scaled,0,zi,classroom,c3_zi.png,1,1,zi,classroom,c0_zi.png,c,1,968,64102,121462,28,Woman
459432,OSS,v7,1536,746,1536,864,2-15-2023,9-54-18,1,1,large,classroom,powerstrip.png,scaled,misscaled,1,zi,classroom,c4_zi.png,0,0,zo,kitchen,k0_zo.png,m,1,1281,64102,121462,28,Woman
459432,OSS,v7,1536,746,1536,864,2-15-2023,9-54-18,1,2,small,classroom,eraser.png,misscaled,misscaled,0,zo,laundromat,l3_zo.png,1,0,zo,bathroom,b1_zo.png,m,1,1058,64102,121462,28,Woman
459432,OSS,v7,1536,746,1536,864,2-15-2023,9-54-18,1,3,small,classroom,paperclip.png,scaled,scaled,1,zi,classroom,c2_zi.png,1,0,zi,bathroom,b5_zi.png,m,1,1381,64102,121462,28,Woman
459432,OSS,v7,1536,746,1536,864,2-15-2023,9-54-18,1,4,small,kitchen,sponge.png,scaled,misscaled,1,zo,kitchen,k4_zo.png,0,0,zi,laundromat,l0_zi.png,m,1,940,64102,121462,28,Woman
459432,OSS,v7,1536,746,1536,864,2-15-2023,9-54-18,1,5,small,laundromat,socks.png,scaled,misscaled,0,zo,kitchen,k1_zo.png,0,0,zi,bathroom,b4_zi.png,m,1,650,64102,121462,28,Woman
459432,OSS,v7,1536,746,1536,864,2-15-2023,9-54-18,1,6,large,laundromat,detergent.png,scaled,misscaled,1,zi,laundromat,l3_zi.png,0,0,zo,classroom,c4_zo.png,m,1,694,64102,121462,28,Woman
459432,OSS,v7,1536,746,1536,864,2-15-2023,9-54-18,1,7,large,classroom,notebook.png,misscaled,misscaled,0,zi,laundromat,l1_zi.png,1,1,zi,laundromat,l4_zi.png,c,1,551,64102,121462,28,Woman
459432,OSS,v7,1536,746,1536,864,2-15-2023,9-54-18,1,8,small,classroom,binderclip.png,scaled,scaled,1,zi,classroom,c1_zi.png,1,1,zi,classroom,c5_zi.png,c,1,617,64102,121462,28,Woman
459432,OSS,v7,1536,746,1536,864,2-15-2023,9-54-18,1,9,small,laundromat,coins.png,misscaled,misscaled,1,zo,laundromat,l4_zo.png,1,1,zo,laundromat,l2_zo.png,c,1,433,64102,121462,28,Woman
459432,OSS,v7,1536,746,1536,864,2-15-2023,9-54-18,1,10,large,laundromat,shirt.png,scaled,misscaled,0,zi,kitchen,k3_zi.png,0,1,zo,kitchen,k2_zo.png,c,1,813,64102,121462,28,Woman
459432,OSS,v7,1536,746,1536,864,2-15-2023,9-54-18,1,11,large,bathroom,hairdryer.png,scaled,scaled,1,zo,bathroom,b3_zo.png,1,1,zo,bathroom,b0_zo.png,c,1,591,64102,121462,28,Woman
459432,OSS,v7,1536,746,1536,864,2-15-2023,9-54-18,1,12,small,kitchen,saltshaker.png,scaled,scaled,0,zi,bathroom,b3_zi.png,1,1,zi,bathroom,b2_zi.png,c,1,998,64102,121462,28,Woman
459432,OSS,v7,1536,746,1536,864,2-15-2023,9-54-18,1,13,large,kitchen,kettle.png,scaled,scaled,0,zo,laundromat,l5_zo.png,1,0,zo,bathroom,b4_zo.png,m,1,562,64102,121462,28,Woman
459432,OSS,v7,1536,746,1536,864,2-15-2023,9-54-18,1,14,large,laundromat,shorts.png,scaled,scaled,0,zo,bathroom,b2_zo.png,1,0,zo,classroom,c3_zo.png,m,1,997,64102,121462,28,Woman
459432,OSS,v7,1536,746,1536,864,2-15-2023,9-54-18,1,15,large,classroom,computer.png,scaled,scaled,1,zo,classroom,c1_zo.png,1,0,zo,bathroom,b5_zo.png,m,1,1045,64102,121462,28,Woman
897425,OSS,v7,1366,617,1366,768,2-15-2023,9-38-36,2,0,large,laundromat,shorts.png,scaled,scaled,1,zo,laundromat,l5_zo.png,1,0,zo,bathroom,b1_zo.png,m,1,1542,64357,207828,37,Woman
897425,OSS,v7,1366,617,1366,768,2-15-2023,9-38-36,2,1,small,classroom,eraser.png,scaled,misscaled,0,zo,laundromat,l0_zo.png,0,0,zi,kitchen,k3_zi.png,m,1,1423,64357,207828,37,Woman
897425,OSS,v7,1366,617,1366,768,2-15-2023,9-38-36,2,2,large,laundromat,detergent.png,scaled,misscaled,0,zi,classroom,c2_zi.png,0,0,zo,kitchen,k5_zo.png,m,1,1211,64357,207828,37,Woman
897425,OSS,v7,1366,617,1366,768,2-15-2023,9-38-36,2,3,small,bathroom,floss.png,scaled,misscaled,1,zo,bathroom,b2_zo.png,0,1,zi,bathroom,b4_zi.png,c,1,683,64357,207828,37,Woman
897425,OSS,v7,1366,617,1366,768,2-15-2023,9-38-36,2,4,large,laundromat,shirt.png,misscaled,scaled,0,zo,classroom,c5_zo.png,0,0,zi,kitchen,k1_zi.png,m,1,697,64357,207828,37,Woman
897425,OSS,v7,1366,617,1366,768,2-15-2023,9-38-36,2,5,small,classroom,binderclip.png,misscaled,misscaled,0,zo,laundromat,l4_zo.png,1,0,zo,kitchen,k0_zo.png,m,1,904,64357,207828,37,Woman
897425,OSS,v7,1366,617,1366,768,2-15-2023,9-38-36,2,6,small,bathroom,lipstick.png,misscaled,scaled,0,zi,kitchen,k5_zi.png,0,0,zo,laundromat,l3_zo.png,m,1,673,64357,207828,37,Woman
897425,OSS,v7,1366,617,1366,768,2-15-2023,9-38-36,2,7,small,bathroom,nailclipper.png,scaled,scaled,1,zi,bathroom,b2_zi.png,1,0,zi,kitchen,k4_zi.png,m,1,789,64357,207828,37,Woman
897425,OSS,v7,1366,617,1366,768,2-15-2023,9-38-36,2,8,large,kitchen,toaster.png,misscaled,misscaled,0,zi,classroom,c1_zi.png,1,0,zi,laundromat,l2_zi.png,m,1,737,64357,207828,37,Woman
897425,OSS,v7,1366,617,1366,768,2-15-2023,9-38-36,2,9,large,kitchen,kettle.png,scaled,scaled,0,zo,classroom,c1_zo.png,1,1,zo,classroom,c3_zo.png,c,1,671,64357,207828,37,Woman
897425,OSS,v7,1366,617,1366,768,2-15-2023,9-38-36,2,10,large,kitchen,pot.png,misscaled,scaled,1,zo,kitchen,k4_zo.png,0,1,zi,kitchen,k0_zi.png,c,1,739,64357,207828,37,Woman
897425,OSS,v7,1366,617,1366,768,2-15-2023,9-38-36,2,11,small,laundromat,socks.png,scaled,misscaled,1,zo,laundromat,l2_zo.png,0,0,zi,bathroom,b0_zi.png,m,1,1018,64357,207828,37,Woman
897425,OSS,v7,1366,617,1366,768,2-15-2023,9-38-36,2,12,large,bathroom,loofah.png,scaled,misscaled,1,zi,bathroom,b1_zi.png,0,1,zo,bathroom,b0_zo.png,c,1,640,64357,207828,37,Woman
897425,OSS,v7,1366,617,1366,768,2-15-2023,9-38-36,2,13,small,kitchen,sponge.png,scaled,scaled,1,zi,kitchen,k2_zi.png,1,0,zi,classroom,c0_zi.png,m,1,730,64357,207828,37,Woman
897425,OSS,v7,1366,617,1366,768,2-15-2023,9-38-36,2,14,large,classroom,computer.png,scaled,misscaled,1,zi,classroom,c4_zi.png,0,0,zo,bathroom,b3_zo.png,m,1,748,64357,207828,37,Woman
897425,OSS,v7,1366,617,1366,768,2-15-2023,9-38-36,2,15,small,kitchen,spoon.png,misscaled,scaled,0,zi,classroom,c5_zi.png,0,0,zo,laundromat,l1_zo.png,m,1,698,64357,207828,37,Woman
452402,OSS,v7,1536,739,1536,864,2-15-2023,12-51-10,3,0,small,bathroom,lipstick.png,scaled,scaled,0,zi,classroom,c4_zi.png,1,0,zi,laundromat,l5_zi.png,m,1,758,65060,248129,28,Man
452402,OSS,v7,1536,739,1536,864,2-15-2023,12-51-10,3,1,large,laundromat,detergent.png,misscaled,misscaled,0,zi,bathroom,b0_zi.png,1,0,zi,kitchen,k5_zi.png,m,1,1151,65060,248129,28,Man
452402,OSS,v7,1536,739,1536,864,2-15-2023,12-51-10,3,2,small,laundromat,tidepod.png,scaled,misscaled,1,zo,laundromat,l5_zo.png,0,1,zi,laundromat,l0_zi.png,c,1,874,65060,248129,28,Man
452402,OSS,v7,1536,739,1536,864,2-15-2023,12-51-10,3,3,large,bathroom,hairdryer.png,scaled,scaled,1,zo,bathroom,b3_zo.png,1,0,zo,classroom,c2_zo.png,m,1,780,65060,248129,28,Man
452402,OSS,v7,1536,739,1536,864,2-15-2023,12-51-10,3,4,large,classroom,computer.png,misscaled,misscaled,0,zi,laundromat,l1_zi.png,1,1,zi,laundromat,l2_zi.png,c,1,746,65060,248129,28,Man
452402,OSS,v7,1536,739,1536,864,2-15-2023,12-51-10,3,5,large,kitchen,kettle.png,misscaled,scaled,0,zo,laundromat,l2_zo.png,0,0,zi,bathroom,b5_zi.png,c,0,925,65060,248129,28,Man
452402,OSS,v7,1536,739,1536,864,2-15-2023,12-51-10,3,6,large,laundromat,shorts.png,misscaled,scaled,1,zo,laundromat,l3_zo.png,0,0,zi,bathroom,b1_zi.png,c,0,1066,65060,248129,28,Man
452402,OSS,v7,1536,739,1536,864,2-15-2023,12-51-10,3,7,small,kitchen,saltshaker.png,misscaled,misscaled,0,zo,bathroom,b1_zo.png,1,0,zo,classroom,c1_zo.png,m,1,771,65060,248129,28,Man
452402,OSS,v7,1536,739,1536,864,2-15-2023,12-51-10,3,8,small,kitchen,spoon.png,scaled,scaled,1,zi,kitchen,k4_zi.png,1,1,zi,kitchen,k0_zi.png,c,1,1093,65060,248129,28,Man
452402,OSS,v7,1536,739,1536,864,2-15-2023,12-51-10,3,9,small,kitchen,sponge.png,scaled,misscaled,1,zo,kitchen,k5_zo.png,0,1,zi,kitchen,k3_zi.png,c,1,739,65060,248129,28,Man
452402,OSS,v7,1536,739,1536,864,2-15-2023,12-51-10,3,10,large,bathroom,tissuebox.png,scaled,scaled,0,zo,laundromat,l0_zo.png,1,0,zo,kitchen,k0_zo.png,m,1,743,65060,248129,28,Man
452402,OSS,v7,1536,739,1536,864,2-15-2023,12-51-10,3,11,small,laundromat,coins.png,scaled,scaled,1,zi,laundromat,l3_zi.png,1,0,zi,kitchen,k2_zi.png,m,1,730,65060,248129,28,Man
452402,OSS,v7,1536,739,1536,864,2-15-2023,12-51-10,3,12,large,laundromat,shirt.png,scaled,misscaled,1,zi,laundromat,l4_zi.png,0,0,zo,classroom,c0_zo.png,m,1,715,65060,248129,28,Man
452402,OSS,v7,1536,739,1536,864,2-15-2023,12-51-10,3,13,large,bathroom,loofah.png,misscaled,misscaled,1,zi,bathroom,b2_zi.png,1,1,zi,bathroom,b3_zi.png,c,1,786,65060,248129,28,Man
452402,OSS,v7,1536,739,1536,864,2-15-2023,12-51-10,3,14,small,classroom,paperclip.png,scaled,scaled,0,zi,bathroom,b4_zi.png,1,0,zi,kitchen,k1_zi.png,m,1,846,65060,248129,28,Man
452402,OSS,v7,1536,739,1536,864,2-15-2023,12-51-10,3,15,small,bathroom,nailclipper.png,misscaled,misscaled,0,zo,kitchen,k4_zo.png,1,0,zo,laundromat,l1_zo.png,m,1,765,65060,248129,28,Man
607651,OSS,v7,1920,961,1920,1080,2-15-2023,13-35-20,1,0,large,classroom,computer.png,scaled,scaled,1,zo,classroom,c4_zo.png,1,0,zo,laundromat,l2_zo.png,m,1,846,61036,175394,38,Man
607651,OSS,v7,1920,961,1920,1080,2-15-2023,13-35-20,1,1,small,laundromat,socks.png,scaled,misscaled,0,zo,classroom,c2_zo.png,0,0,zi,kitchen,k3_zi.png,m,1,606,61036,175394,38,Man
607651,OSS,v7,1920,961,1920,1080,2-15-2023,13-35-20,1,2,large,laundromat,shirt.png,scaled,misscaled,1,zi,laundromat,l5_zi.png,0,1,zo,laundromat,l3_zo.png,c,1,664,61036,175394,38,Man
607651,OSS,v7,1920,961,1920,1080,2-15-2023,13-35-20,1,3,small,laundromat,tidepod.png,misscaled,misscaled,1,zo,laundromat,l5_zo.png,1,1,zo,laundromat,l0_zo.png,c,1,584,61036,175394,38,Man
607651,OSS,v7,1920,961,1920,1080,2-15-2023,13-35-20,1,4,small,kitchen,sponge.png,misscaled,scaled,0,zi,laundromat,l4_zi.png,0,0,zo,classroom,c1_zo.png,m,1,553,61036,175394,38,Man
607651,OSS,v7,1920,961,1920,1080,2-15-2023,13-35-20,1,5,large,classroom,powerstrip.png,scaled,misscaled,0,zi,laundromat,l0_zi.png,0,1,zo,laundromat,l1_zo.png,c,1,1268,61036,175394,38,Man
607651,OSS,v7,1920,961,1920,1080,2-15-2023,13-35-20,1,6,small,laundromat,coins.png,misscaled,misscaled,0,zo,classroom,c5_zo.png,1,0,zo,bathroom,b5_zo.png,m,1,477,61036,175394,38,Man
607651,OSS,v7,1920,961,1920,1080,2-15-2023,13-35-20,1,7,large,classroom,notebook.png,scaled,misscaled,1,zi,classroom,c1_zi.png,0,0,zo,kitchen,k5_zo.png,m,1,593,61036,175394,38,Man
607651,OSS,v7,1920,961,1920,1080,2-15-2023,13-35-20,1,8,small,kitchen,saltshaker.png,scaled,scaled,0,zi,classroom,c4_zi.png,1,0,zi,laundromat,l1_zi.png,m,1,556,61036,175394,38,Man
607651,OSS,v7,1920,961,1920,1080,2-15-2023,13-35-20,1,9,small,classroom,eraser.png,scaled,misscaled,1,zo,classroom,c3_zo.png,0,0,zi,kitchen,k5_zi.png,m,1,523,61036,175394,38,Man
607651,OSS,v7,1920,961,1920,1080,2-15-2023,13-35-20,1,10,large,bathroom,hairdryer.png,scaled,misscaled,0,zi,kitchen,k1_zi.png,0,1,zo,kitchen,k3_zo.png,c,1,676,61036,175394,38,Man
607651,OSS,v7,1920,961,1920,1080,2-15-2023,13-35-20,1,11,large,bathroom,tissuebox.png,scaled,scaled,0,zo,laundromat,l4_zo.png,1,0,zo,classroom,c0_zo.png,m,1,601,61036,175394,38,Man
607651,OSS,v7,1920,961,1920,1080,2-15-2023,13-35-20,1,12,large,kitchen,toaster.png,misscaled,scaled,0,zo,bathroom,b2_zo.png,0,1,zi,bathroom,b0_zi.png,c,1,781,61036,175394,38,Man
607651,OSS,v7,1920,961,1920,1080,2-15-2023,13-35-20,1,13,small,classroom,binderclip.png,scaled,scaled,1,zi,classroom,c0_zi.png,1,0,zi,kitchen,k2_zi.png,m,1,554,61036,175394,38,Man
607651,OSS,v7,1920,961,1920,1080,2-15-2023,13-35-20,1,14,small,kitchen,spoon.png,scaled,scaled,1,zi,kitchen,k0_zi.png,1,0,zi,bathroom,b4_zi.png,m,1,623,61036,175394,38,Man
607651,OSS,v7,1920,961,1920,1080,2-15-2023,13-35-20,1,15,large,kitchen,kettle.png,scaled,scaled,1,zo,kitchen,k4_zo.png,1,1,zo,kitchen,k1_zo.png,c,1,554,61036,175394,38,Man
420113,OSS,v7,1366,649,1366,768,2-15-2023,13-1-38,2,0,small,classroom,paperclip.png,misscaled,scaled,0,zi,kitchen,k1_zi.png,0,0,zo,bathroom,b0_zo.png,m,1,848,63986,168147,31,Woman
420113,OSS,v7,1366,649,1366,768,2-15-2023,13-1-38,2,1,small,laundromat,socks.png,scaled,misscaled,1,zo,laundromat,l2_zo.png,0,0,zi,kitchen,k3_zi.png,m,1,788,63986,168147,31,Woman
420113,OSS,v7,1366,649,1366,768,2-15-2023,13-1-38,2,2,small,laundromat,coins.png,misscaled,scaled,0,zi,classroom,c1_zi.png,0,0,zo,kitchen,k3_zo.png,c,0,621,63986,168147,31,Woman
420113,OSS,v7,1366,649,1366,768,2-15-2023,13-1-38,2,3,large,bathroom,hairdryer.png,scaled,scaled,1,zo,bathroom,b1_zo.png,1,1,zo,bathroom,b3_zo.png,m,0,665,63986,168147,31,Woman
420113,OSS,v7,1366,649,1366,768,2-15-2023,13-1-38,2,4,large,laundromat,shorts.png,scaled,misscaled,0,zi,classroom,c4_zi.png,0,0,zo,kitchen,k2_zo.png,m,1,736,63986,168147,31,Woman
420113,OSS,v7,1366,649,1366,768,2-15-2023,13-1-38,2,5,large,bathroom,tissuebox.png,scaled,misscaled,1,zi,bathroom,b5_zi.png,0,0,zo,kitchen,k4_zo.png,c,0,1058,63986,168147,31,Woman
420113,OSS,v7,1366,649,1366,768,2-15-2023,13-1-38,2,6,large,kitchen,kettle.png,scaled,scaled,1,zo,kitchen,k0_zo.png,1,0,zo,bathroom,b5_zo.png,m,1,982,63986,168147,31,Woman
420113,OSS,v7,1366,649,1366,768,2-15-2023,13-1-38,2,7,large,kitchen,pot.png,misscaled,misscaled,1,zi,kitchen,k2_zi.png,1,1,zi,kitchen,k4_zi.png,c,1,767,63986,168147,31,Woman
420113,OSS,v7,1366,649,1366,768,2-15-2023,13-1-38,2,8,small,laundromat,tidepod.png,misscaled,misscaled,0,zo,bathroom,b4_zo.png,1,1,zo,bathroom,b2_zo.png,c,1,718,63986,168147,31,Woman
420113,OSS,v7,1366,649,1366,768,2-15-2023,13-1-38,2,9,large,classroom,notebook.png,scaled,misscaled,0,zi,laundromat,l1_zi.png,0,0,zo,kitchen,k1_zo.png,m,1,691,63986,168147,31,Woman
420113,OSS,v7,1366,649,1366,768,2-15-2023,13-1-38,2,10,large,bathroom,loofah.png,misscaled,scaled,0,zo,classroom,c2_zo.png,0,1,zi,classroom,c0_zi.png,c,1,944,63986,168147,31,Woman
420113,OSS,v7,1366,649,1366,768,2-15-2023,13-1-38,2,11,small,bathroom,lipstick.png,misscaled,misscaled,0,zo,classroom,c5_zo.png,1,1,zo,classroom,c4_zo.png,c,1,543,63986,168147,31,Woman
420113,OSS,v7,1366,649,1366,768,2-15-2023,13-1-38,2,12,small,classroom,eraser.png,misscaled,misscaled,1,zo,classroom,c3_zo.png,1,0,zo,kitchen,k5_zo.png,m,1,580,63986,168147,31,Woman
420113,OSS,v7,1366,649,1366,768,2-15-2023,13-1-38,2,13,small,classroom,binderclip.png,scaled,scaled,1,zi,classroom,c5_zi.png,1,0,zi,kitchen,k5_zi.png,m,1,709,63986,168147,31,Woman
420113,OSS,v7,1366,649,1366,768,2-15-2023,13-1-38,2,14,small,bathroom,nailclipper.png,scaled,scaled,1,zi,bathroom,b4_zi.png,1,1,zi,bathroom,b3_zi.png,c,1,479,63986,168147,31,Woman
420113,OSS,v7,1366,649,1366,768,2-15-2023,13-1-38,2,15,large,laundromat,shirt.png,misscaled,scaled,0,zo,classroom,c0_zo.png,0,1,zi,classroom,c2_zi.png,c,1,763,63986,168147,31,Woman
276263,OSS,v7,1294,711,1440,900,2-16-2023,15-29-57,1,0,large,bathroom,tissuebox.png,misscaled,scaled,0,zo,classroom,c4_zo.png,0,0,zi,kitchen,k5_zi.png,m,1,893,70538,172371,30,Woman
276263,OSS,v7,1294,711,1440,900,2-16-2023,15-29-57,1,1,large,bathroom,hairdryer.png,misscaled,scaled,1,zo,bathroom,b2_zo.png,0,1,zi,bathroom,b3_zi.png,c,1,779,70538,172371,30,Woman
276263,OSS,v7,1294,711,1440,900,2-16-2023,15-29-57,1,2,small,bathroom,lipstick.png,misscaled,misscaled,0,zo,classroom,c5_zo.png,1,0,zo,kitchen,k3_zo.png,c,0,1242,70538,172371,30,Woman
276263,OSS,v7,1294,711,1440,900,2-16-2023,15-29-57,1,3,small,kitchen,saltshaker.png,scaled,scaled,0,zi,classroom,c4_zi.png,1,0,zi,bathroom,b1_zi.png,m,1,1202,70538,172371,30,Woman
276263,OSS,v7,1294,711,1440,900,2-16-2023,15-29-57,1,4,small,classroom,binderclip.png,misscaled,misscaled,1,zo,classroom,c0_zo.png,1,0,zo,kitchen,k2_zo.png,m,1,1021,70538,172371,30,Woman
276263,OSS,v7,1294,711,1440,900,2-16-2023,15-29-57,1,5,large,bathroom,loofah.png,scaled,misscaled,0,zi,laundromat,l1_zi.png,0,1,zo,laundromat,l3_zo.png,c,1,1295,70538,172371,30,Woman
276263,OSS,v7,1294,711,1440,900,2-16-2023,15-29-57,1,6,small,kitchen,spoon.png,scaled,scaled,0,zi,bathroom,b0_zi.png,1,1,zi,bathroom,b5_zi.png,c,1,1088,70538,172371,30,Woman
276263,OSS,v7,1294,711,1440,900,2-16-2023,15-29-57,1,7,large,kitchen,kettle.png,misscaled,misscaled,0,zi,classroom,c1_zi.png,1,0,zi,laundromat,l4_zi.png,m,1,1011,70538,172371,30,Woman
276263,OSS,v7,1294,711,1440,900,2-16-2023,15-29-57,1,8,small,kitchen,sponge.png,scaled,misscaled,1,zo,kitchen,k4_zo.png,0,1,zi,kitchen,k3_zi.png,c,1,1274,70538,172371,30,Woman
276263,OSS,v7,1294,711,1440,900,2-16-2023,15-29-57,1,9,small,bathroom,floss.png,misscaled,scaled,1,zi,bathroom,b2_zi.png,0,0,zo,classroom,c2_zo.png,m,1,867,70538,172371,30,Woman
276263,OSS,v7,1294,711,1440,900,2-16-2023,15-29-57,1,10,large,kitchen,pot.png,misscaled,misscaled,1,zi,kitchen,k4_zi.png,1,1,zi,kitchen,k0_zi.png,c,1,1025,70538,172371,30,Woman
276263,OSS,v7,1294,711,1440,900,2-16-2023,15-29-57,1,11,large,kitchen,toaster.png,scaled,scaled,1,zo,kitchen,k0_zo.png,1,1,zo,kitchen,k5_zo.png,c,1,1348,70538,172371,30,Woman
276263,OSS,v7,1294,711,1440,900,2-16-2023,15-29-57,1,12,large,laundromat,shirt.png,scaled,scaled,0,zo,classroom,c1_zo.png,1,0,zo,kitchen,k1_zo.png,m,1,1024,70538,172371,30,Woman
276263,OSS,v7,1294,711,1440,900,2-16-2023,15-29-57,1,13,small,bathroom,nailclipper.png,scaled,misscaled,0,zo,classroom,c3_zo.png,0,1,zi,classroom,c5_zi.png,none,0,2001,70538,172371,30,Woman
276263,OSS,v7,1294,711,1440,900,2-16-2023,15-29-57,1,14,small,laundromat,coins.png,scaled,scaled,1,zi,laundromat,l2_zi.png,1,0,zi,kitchen,k2_zi.png,m,1,1311,70538,172371,30,Woman
276263,OSS,v7,1294,711,1440,900,2-16-2023,15-29-57,1,15,large,classroom,notebook.png,misscaled,misscaled,1,zi,classroom,c2_zi.png,1,1,zi,classroom,c0_zi.png,m,0,1619,70538,172371,30,Woman
870197,OSS,v7,1920,1007,1920,1080,2-15-2023,12-39-25,1,0,small,bathroom,lipstick.png,misscaled,misscaled,1,zo,bathroom,b1_zo.png,1,1,zo,bathroom,b3_zo.png,c,1,884,65950,147959,49,Man
870197,OSS,v7,1920,1007,1920,1080,2-15-2023,12-39-25,1,1,small,classroom,eraser.png,scaled,scaled,1,zi,classroom,c3_zi.png,1,0,zi,laundromat,l0_zi.png,m,1,804,65950,147959,49,Man
870197,OSS,v7,1920,1007,1920,1080,2-15-2023,12-39-25,1,2,large,bathroom,hairdryer.png,misscaled,scaled,0,zo,kitchen,k0_zo.png,0,0,zi,laundromat,l2_zi.png,m,1,1850,65950,147959,49,Man
870197,OSS,v7,1920,1007,1920,1080,2-15-2023,12-39-25,1,3,large,classroom,notebook.png,scaled,misscaled,1,zi,classroom,c1_zi.png,0,1,zo,classroom,c4_zo.png,c,1,914,65950,147959,49,Man
870197,OSS,v7,1920,1007,1920,1080,2-15-2023,12-39-25,1,4,small,classroom,paperclip.png,scaled,misscaled,0,zo,kitchen,k5_zo.png,0,0,zi,laundromat,l4_zi.png,m,1,909,65950,147959,49,Man
870197,OSS,v7,1920,1007,1920,1080,2-15-2023,12-39-25,1,5,large,classroom,computer.png,scaled,scaled,1,zo,classroom,c1_zo.png,1,1,zo,classroom,c0_zo.png,c,1,878,65950,147959,49,Man
870197,OSS,v7,1920,1007,1920,1080,2-15-2023,12-39-25,1,6,small,kitchen,spoon.png,misscaled,scaled,0,zi,classroom,c4_zi.png,0,0,zo,laundromat,l2_zo.png,m,1,685,65950,147959,49,Man
870197,OSS,v7,1920,1007,1920,1080,2-15-2023,12-39-25,1,7,large,bathroom,loofah.png,scaled,misscaled,0,zi,kitchen,k1_zi.png,0,1,zo,kitchen,k3_zo.png,c,1,641,65950,147959,49,Man
870197,OSS,v7,1920,1007,1920,1080,2-15-2023,12-39-25,1,8,small,classroom,binderclip.png,misscaled,misscaled,0,zo,kitchen,k2_zo.png,1,1,zo,kitchen,k1_zo.png,c,1,1071,65950,147959,49,Man
870197,OSS,v7,1920,1007,1920,1080,2-15-2023,12-39-25,1,9,small,kitchen,sponge.png,scaled,scaled,1,zi,kitchen,k5_zi.png,1,0,zi,classroom,c5_zi.png,m,1,786,65950,147959,49,Man
870197,OSS,v7,1920,1007,1920,1080,2-15-2023,12-39-25,1,10,small,bathroom,nailclipper.png,scaled,scaled,0,zi,kitchen,k0_zi.png,1,1,zi,kitchen,k3_zi.png,c,1,970,65950,147959,49,Man
870197,OSS,v7,1920,1007,1920,1080,2-15-2023,12-39-25,1,11,large,laundromat,shirt.png,scaled,scaled,1,zo,laundromat,l4_zo.png,1,1,zo,laundromat,l3_zo.png,m,0,502,65950,147959,49,Man
870197,OSS,v7,1920,1007,1920,1080,2-15-2023,12-39-25,1,12,large,kitchen,pot.png,misscaled,misscaled,1,zi,kitchen,k4_zi.png,1,0,zi,bathroom,b5_zi.png,m,1,1063,65950,147959,49,Man
870197,OSS,v7,1920,1007,1920,1080,2-15-2023,12-39-25,1,13,small,laundromat,tidepod.png,misscaled,misscaled,1,zo,laundromat,l1_zo.png,1,0,zo,classroom,c5_zo.png,m,1,996,65950,147959,49,Man
870197,OSS,v7,1920,1007,1920,1080,2-15-2023,12-39-25,1,14,large,laundromat,detergent.png,misscaled,scaled,0,zo,kitchen,k4_zo.png,0,0,zi,bathroom,b3_zi.png,m,1,1255,65950,147959,49,Man
870197,OSS,v7,1920,1007,1920,1080,2-15-2023,12-39-25,1,15,large,laundromat,shorts.png,misscaled,misscaled,0,zi,classroom,c0_zi.png,1,1,zi,classroom,c2_zi.png,c,1,690,65950,147959,49,Man
418905,OSS,v7,1881,880,1920,1080,2-15-2023,8-53-17,1,0,small,classroom,binderclip.png,scaled,scaled,1,zi,classroom,c4_zi.png,1,0,zi,laundromat,l4_zi.png,c,0,998,64825,124148,35,Man
418905,OSS,v7,1881,880,1920,1080,2-15-2023,8-53-17,1,1,large,classroom,computer.png,misscaled,scaled,0,zo,bathroom,b0_zo.png,0,0,zi,kitchen,k3_zi.png,c,0,586,64825,124148,35,Man
418905,OSS,v7,1881,880,1920,1080,2-15-2023,8-53-17,1,2,small,laundromat,tidepod.png,scaled,scaled,0,zi,bathroom,b1_zi.png,1,1,zi,bathroom,b2_zi.png,c,1,790,64825,124148,35,Man
418905,OSS,v7,1881,880,1920,1080,2-15-2023,8-53-17,1,3,large,laundromat,detergent.png,scaled,misscaled,0,zi,kitchen,k4_zi.png,0,0,zo,bathroom,b2_zo.png,m,1,836,64825,124148,35,Man
418905,OSS,v7,1881,880,1920,1080,2-15-2023,8-53-17,1,4,small,kitchen,spoon.png,scaled,misscaled,1,zo,kitchen,k4_zo.png,0,0,zi,bathroom,b0_zi.png,m,1,939,64825,124148,35,Man
418905,OSS,v7,1881,880,1920,1080,2-15-2023,8-53-17,1,5,large,kitchen,pot.png,scaled,misscaled,1,zi,kitchen,k2_zi.png,0,0,zo,bathroom,b5_zo.png,m,1,1150,64825,124148,35,Man
418905,OSS,v7,1881,880,1920,1080,2-15-2023,8-53-17,1,6,large,bathroom,hairdryer.png,scaled,scaled,0,zo,laundromat,l0_zo.png,1,0,zo,kitchen,k5_zo.png,m,1,754,64825,124148,35,Man
418905,OSS,v7,1881,880,1920,1080,2-15-2023,8-53-17,1,7,small,laundromat,socks.png,scaled,misscaled,1,zo,laundromat,l5_zo.png,0,1,zi,laundromat,l0_zi.png,c,1,776,64825,124148,35,Man
418905,OSS,v7,1881,880,1920,1080,2-15-2023,8-53-17,1,8,small,classroom,paperclip.png,misscaled,misscaled,0,zo,kitchen,k0_zo.png,1,1,zo,kitchen,k2_zo.png,c,1,1327,64825,124148,35,Man
418905,OSS,v7,1881,880,1920,1080,2-15-2023,8-53-17,1,9,small,bathroom,lipstick.png,scaled,scaled,0,zi,classroom,c3_zi.png,1,1,zi,classroom,c0_zi.png,c,1,1141,64825,124148,35,Man
418905,OSS,v7,1881,880,1920,1080,2-15-2023,8-53-17,1,10,large,bathroom,loofah.png,scaled,misscaled,1,zi,bathroom,b4_zi.png,0,0,zo,kitchen,k3_zo.png,m,1,620,64825,124148,35,Man
418905,OSS,v7,1881,880,1920,1080,2-15-2023,8-53-17,1,11,large,laundromat,shirt.png,misscaled,scaled,1,zo,laundromat,l2_zo.png,0,1,zi,laundromat,l5_zi.png,c,1,421,64825,124148,35,Man
418905,OSS,v7,1881,880,1920,1080,2-15-2023,8-53-17,1,12,large,kitchen,toaster.png,misscaled,misscaled,0,zi,laundromat,l3_zi.png,1,1,zi,laundromat,l1_zi.png,c,1,414,64825,124148,35,Man
418905,OSS,v7,1881,880,1920,1080,2-15-2023,8-53-17,1,13,small,kitchen,sponge.png,misscaled,scaled,1,zi,kitchen,k0_zi.png,0,1,zo,kitchen,k1_zo.png,c,1,856,64825,124148,35,Man
418905,OSS,v7,1881,880,1920,1080,2-15-2023,8-53-17,1,14,small,laundromat,coins.png,misscaled,misscaled,0,zo,classroom,c1_zo.png,1,1,zo,classroom,c5_zo.png,c,1,1001,64825,124148,35,Man
418905,OSS,v7,1881,880,1920,1080,2-15-2023,8-53-17,1,15,large,laundromat,shorts.png,scaled,scaled,1,zo,laundromat,l3_zo.png,1,0,zo,bathroom,b1_zo.png,m,1,675,64825,124148,35,Man
851599,OSS,v7,2560,1329,2560,1440,2-16-2023,9-29-16,2,0,small,classroom,eraser.png,scaled,misscaled,0,zo,kitchen,k5_zo.png,0,1,zi,kitchen,k4_zi.png,c,1,551,60826,179764,28,Woman
851599,OSS,v7,2560,1329,2560,1440,2-16-2023,9-29-16,2,1,large,kitchen,pot.png,misscaled,scaled,0,zo,classroom,c5_zo.png,0,1,zi,classroom,c2_zi.png,c,1,634,60826,179764,28,Woman
851599,OSS,v7,2560,1329,2560,1440,2-16-2023,9-29-16,2,2,small,kitchen,saltshaker.png,misscaled,scaled,1,zi,kitchen,k3_zi.png,0,0,zo,laundromat,l0_zo.png,m,1,749,60826,179764,28,Woman
851599,OSS,v7,2560,1329,2560,1440,2-16-2023,9-29-16,2,3,small,kitchen,sponge.png,misscaled,misscaled,1,zo,kitchen,k1_zo.png,1,1,zo,kitchen,k4_zo.png,c,1,587,60826,179764,28,Woman
851599,OSS,v7,2560,1329,2560,1440,2-16-2023,9-29-16,2,4,small,classroom,binderclip.png,misscaled,scaled,1,zi,classroom,c4_zi.png,0,0,zo,bathroom,b0_zo.png,m,1,569,60826,179764,28,Woman
851599,OSS,v7,2560,1329,2560,1440,2-16-2023,9-29-16,2,5,large,bathroom,loofah.png,misscaled,misscaled,1,zi,bathroom,b4_zi.png,1,0,zi,kitchen,k1_zi.png,m,1,684,60826,179764,28,Woman
851599,OSS,v7,2560,1329,2560,1440,2-16-2023,9-29-16,2,6,large,kitchen,toaster.png,misscaled,misscaled,0,zi,classroom,c1_zi.png,1,1,zi,classroom,c5_zi.png,c,1,631,60826,179764,28,Woman
851599,OSS,v7,2560,1329,2560,1440,2-16-2023,9-29-16,2,7,small,laundromat,coins.png,scaled,scaled,0,zi,bathroom,b5_zi.png,1,0,zi,kitchen,k0_zi.png,c,0,501,60826,179764,28,Woman
851599,OSS,v7,2560,1329,2560,1440,2-16-2023,9-29-16,2,8,large,laundromat,shorts.png,scaled,scaled,1,zo,laundromat,l2_zo.png,1,1,zo,laundromat,l1_zo.png,c,1,743,60826,179764,28,Woman
851599,OSS,v7,2560,1329,2560,1440,2-16-2023,9-29-16,2,9,large,laundromat,shirt.png,misscaled,misscaled,0,zi,classroom,c3_zi.png,1,0,zi,kitchen,k5_zi.png,m,1,665,60826,179764,28,Woman
851599,OSS,v7,2560,1329,2560,1440,2-16-2023,9-29-16,2,10,large,classroom,computer.png,scaled,scaled,0,zo,kitchen,k3_zo.png,1,1,zo,kitchen,k2_zo.png,c,1,490,60826,179764,28,Woman
851599,OSS,v7,2560,1329,2560,1440,2-16-2023,9-29-16,2,11,small,kitchen,spoon.png,misscaled,misscaled,1,zo,kitchen,k0_zo.png,1,0,zo,classroom,c3_zo.png,m,1,524,60826,179764,28,Woman
851599,OSS,v7,2560,1329,2560,1440,2-16-2023,9-29-16,2,12,large,bathroom,tissuebox.png,misscaled,scaled,1,zo,bathroom,b1_zo.png,0,1,zi,bathroom,b2_zi.png,c,1,598,60826,179764,28,Woman
851599,OSS,v7,2560,1329,2560,1440,2-16-2023,9-29-16,2,13,small,classroom,paperclip.png,misscaled,misscaled,0,zo,bathroom,b5_zo.png,1,1,zo,bathroom,b2_zo.png,c,1,725,60826,179764,28,Woman
851599,OSS,v7,2560,1329,2560,1440,2-16-2023,9-29-16,2,14,small,bathroom,floss.png,scaled,scaled,0,zi,laundromat,l1_zi.png,1,0,zi,classroom,c0_zi.png,m,1,480,60826,179764,28,Woman
851599,OSS,v7,2560,1329,2560,1440,2-16-2023,9-29-16,2,15,large,laundromat,detergent.png,misscaled,misscaled,1,zi,laundromat,l4_zi.png,1,1,zi,laundromat,l3_zi.png,c,1,580,60826,179764,28,Woman
681232,OSS,v7,1920,961,1920,1080,2-16-2023,12-46-58,1,0,large,laundromat,shorts.png,scaled,misscaled,0,zi,bathroom,b1_zi.png,0,0,zo,classroom,c5_zo.png,m,1,678,61970,109484,40,Man
681232,OSS,v7,1920,961,1920,1080,2-16-2023,12-46-58,1,1,large,laundromat,detergent.png,scaled,misscaled,1,zi,laundromat,l1_zi.png,0,0,zo,kitchen,k2_zo.png,m,1,857,61970,109484,40,Man
681232,OSS,v7,1920,961,1920,1080,2-16-2023,12-46-58,1,2,large,laundromat,shirt.png,misscaled,misscaled,1,zi,laundromat,l2_zi.png,1,1,zi,laundromat,l5_zi.png,c,1,505,61970,109484,40,Man
681232,OSS,v7,1920,961,1920,1080,2-16-2023,12-46-58,1,3,large,bathroom,loofah.png,misscaled,misscaled,0,zi,classroom,c3_zi.png,1,0,zi,laundromat,l3_zi.png,m,1,687,61970,109484,40,Man
681232,OSS,v7,1920,961,1920,1080,2-16-2023,12-46-58,1,4,small,classroom,eraser.png,scaled,misscaled,0,zo,bathroom,b0_zo.png,0,0,zi,kitchen,k1_zi.png,m,1,1029,61970,109484,40,Man
681232,OSS,v7,1920,961,1920,1080,2-16-2023,12-46-58,1,5,large,classroom,computer.png,misscaled,scaled,0,zo,laundromat,l1_zo.png,0,1,zi,laundromat,l0_zi.png,c,1,526,61970,109484,40,Man
681232,OSS,v7,1920,961,1920,1080,2-16-2023,12-46-58,1,6,large,kitchen,kettle.png,misscaled,scaled,1,zo,kitchen,k0_zo.png,0,1,zi,kitchen,k3_zi.png,c,1,702,61970,109484,40,Man
681232,OSS,v7,1920,961,1920,1080,2-16-2023,12-46-58,1,7,large,bathroom,tissuebox.png,scaled,scaled,0,zo,laundromat,l5_zo.png,1,0,zo,classroom,c0_zo.png,m,1,615,61970,109484,40,Man
681232,OSS,v7,1920,961,1920,1080,2-16-2023,12-46-58,1,8,small,classroom,paperclip.png,scaled,scaled,1,zi,classroom,c0_zi.png,1,1,zi,classroom,c4_zi.png,c,1,734,61970,109484,40,Man
681232,OSS,v7,1920,961,1920,1080,2-16-2023,12-46-58,1,9,large,classroom,notebook.png,misscaled,scaled,1,zo,classroom,c3_zo.png,0,1,zi,classroom,c2_zi.png,c,1,592,61970,109484,40,Man
681232,OSS,v7,1920,961,1920,1080,2-16-2023,12-46-58,1,10,small,classroom,binderclip.png,scaled,misscaled,0,zo,laundromat,l3_zo.png,0,0,zi,kitchen,k2_zi.png,m,1,551,61970,109484,40,Man
681232,OSS,v7,1920,961,1920,1080,2-16-2023,12-46-58,1,11,small,kitchen,saltshaker.png,misscaled,scaled,0,zi,bathroom,b5_zi.png,0,1,zo,bathroom,b1_zo.png,c,1,579,61970,109484,40,Man
681232,OSS,v7,1920,961,1920,1080,2-16-2023,12-46-58,1,12,small,kitchen,spoon.png,scaled,scaled,0,zi,bathroom,b0_zi.png,1,1,zi,bathroom,b4_zi.png,c,1,573,61970,109484,40,Man
681232,OSS,v7,1920,961,1920,1080,2-16-2023,12-46-58,1,13,small,bathroom,nailclipper.png,scaled,scaled,1,zi,bathroom,b3_zi.png,1,1,zi,bathroom,b2_zi.png,c,1,1097,61970,109484,40,Man
681232,OSS,v7,1920,961,1920,1080,2-16-2023,12-46-58,1,14,small,bathroom,floss.png,scaled,misscaled,1,zo,bathroom,b2_zo.png,0,0,zi,kitchen,k5_zi.png,m,1,946,61970,109484,40,Man
681232,OSS,v7,1920,961,1920,1080,2-16-2023,12-46-58,1,15,small,laundromat,coins.png,scaled,misscaled,1,zo,laundromat,l0_zo.png,0,0,zi,kitchen,k4_zi.png,m,1,818,61970,109484,40,Man
350611,OSS,v7,1920,929,1920,1080,2-15-2023,10-4-15,2,0,small,bathroom,lipstick.png,scaled,scaled,0,zi,kitchen,k3_zi.png,1,1,zi,kitchen,k1_zi.png,c,1,994,63720,176221,52,Man
350611,OSS,v7,1920,929,1920,1080,2-15-2023,10-4-15,2,1,small,kitchen,saltshaker.png,misscaled,misscaled,1,zo,kitchen,k5_zo.png,1,0,zo,classroom,c2_zo.png,m,1,1117,63720,176221,52,Man
350611,OSS,v7,1920,929,1920,1080,2-15-2023,10-4-15,2,2,large,kitchen,kettle.png,scaled,misscaled,1,zi,kitchen,k0_zi.png,0,1,zo,kitchen,k3_zo.png,c,1,703,63720,176221,52,Man
350611,OSS,v7,1920,929,1920,1080,2-15-2023,10-4-15,2,3,large,bathroom,loofah.png,misscaled,misscaled,1,zi,bathroom,b5_zi.png,1,1,zi,bathroom,b1_zi.png,c,1,771,63720,176221,52,Man
350611,OSS,v7,1920,929,1920,1080,2-15-2023,10-4-15,2,4,large,classroom,computer.png,scaled,misscaled,0,zi,kitchen,k5_zi.png,0,1,zo,kitchen,k0_zo.png,c,1,614,63720,176221,52,Man
350611,OSS,v7,1920,929,1920,1080,2-15-2023,10-4-15,2,5,large,classroom,notebook.png,misscaled,scaled,1,zo,classroom,c4_zo.png,0,0,zi,bathroom,b2_zi.png,m,1,910,63720,176221,52,Man
350611,OSS,v7,1920,929,1920,1080,2-15-2023,10-4-15,2,6,small,bathroom,floss.png,scaled,misscaled,0,zo,laundromat,l0_zo.png,0,1,zi,laundromat,l5_zi.png,c,1,773,63720,176221,52,Man
350611,OSS,v7,1920,929,1920,1080,2-15-2023,10-4-15,2,7,large,bathroom,tissuebox.png,misscaled,scaled,1,zo,bathroom,b2_zo.png,0,0,zi,classroom,c5_zi.png,m,1,718,63720,176221,52,Man
350611,OSS,v7,1920,929,1920,1080,2-15-2023,10-4-15,2,8,large,laundromat,shirt.png,scaled,scaled,0,zo,bathroom,b3_zo.png,1,1,zo,bathroom,b1_zo.png,c,1,813,63720,176221,52,Man
350611,OSS,v7,1920,929,1920,1080,2-15-2023,10-4-15,2,9,small,kitchen,spoon.png,scaled,scaled,1,zi,kitchen,k4_zi.png,1,0,zi,laundromat,l3_zi.png,m,1,814,63720,176221,52,Man
350611,OSS,v7,1920,929,1920,1080,2-15-2023,10-4-15,2,10,large,classroom,powerstrip.png,scaled,misscaled,0,zi,kitchen,k2_zi.png,0,0,zo,bathroom,b4_zo.png,m,1,862,63720,176221,52,Man
350611,OSS,v7,1920,929,1920,1080,2-15-2023,10-4-15,2,11,small,kitchen,sponge.png,scaled,misscaled,1,zo,kitchen,k1_zo.png,0,0,zi,laundromat,l1_zi.png,m,1,680,63720,176221,52,Man
350611,OSS,v7,1920,929,1920,1080,2-15-2023,10-4-15,2,12,small,bathroom,nailclipper.png,misscaled,scaled,1,zi,bathroom,b3_zi.png,0,1,zo,bathroom,b0_zo.png,c,1,782,63720,176221,52,Man
350611,OSS,v7,1920,929,1920,1080,2-15-2023,10-4-15,2,13,large,kitchen,pot.png,misscaled,scaled,0,zo,bathroom,b5_zo.png,0,1,zi,bathroom,b4_zi.png,c,1,673,63720,176221,52,Man
350611,OSS,v7,1920,929,1920,1080,2-15-2023,10-4-15,2,14,small,classroom,binderclip.png,scaled,misscaled,0,zo,laundromat,l1_zo.png,0,1,zi,laundromat,l0_zi.png,c,1,1012,63720,176221,52,Man
350611,OSS,v7,1920,929,1920,1080,2-15-2023,10-4-15,2,15,small,classroom,eraser.png,scaled,scaled,0,zi,laundromat,l4_zi.png,1,0,zi,bathroom,b0_zi.png,m,1,864,63720,176221,52,Man
516850,OSS,v7,1536,714,1536,864,2-17-2023,12-49-58,2,0,large,laundromat,shorts.png,misscaled,scaled,1,zo,laundromat,l2_zo.png,0,1,zi,laundromat,l4_zi.png,c,1,599,60482,234736,33,Woman
516850,OSS,v7,1536,714,1536,864,2-17-2023,12-49-58,2,1,small,kitchen,spoon.png,misscaled,scaled,1,zi,kitchen,k1_zi.png,0,1,zo,kitchen,k3_zo.png,c,1,587,60482,234736,33,Woman
516850,OSS,v7,1536,714,1536,864,2-17-2023,12-49-58,2,2,small,classroom,eraser.png,scaled,misscaled,1,zo,classroom,c3_zo.png,0,0,zi,kitchen,k3_zi.png,m,1,591,60482,234736,33,Woman
516850,OSS,v7,1536,714,1536,864,2-17-2023,12-49-58,2,3,large,bathroom,loofah.png,scaled,scaled,0,zo,kitchen,k2_zo.png,1,0,zo,classroom,c2_zo.png,m,1,560,60482,234736,33,Woman
516850,OSS,v7,1536,714,1536,864,2-17-2023,12-49-58,2,4,small,kitchen,saltshaker.png,scaled,misscaled,0,zo,classroom,c1_zo.png,0,0,zi,laundromat,l0_zi.png,m,1,578,60482,234736,33,Woman
516850,OSS,v7,1536,714,1536,864,2-17-2023,12-49-58,2,5,small,classroom,binderclip.png,misscaled,misscaled,0,zo,bathroom,b5_zo.png,1,0,zo,laundromat,l0_zo.png,m,1,618,60482,234736,33,Woman
516850,OSS,v7,1536,714,1536,864,2-17-2023,12-49-58,2,6,large,bathroom,tissuebox.png,scaled,scaled,1,zo,bathroom,b3_zo.png,1,1,zo,bathroom,b1_zo.png,c,1,532,60482,234736,33,Woman
516850,OSS,v7,1536,714,1536,864,2-17-2023,12-49-58,2,7,small,bathroom,lipstick.png,scaled,scaled,1,zi,bathroom,b5_zi.png,1,1,zi,bathroom,b0_zi.png,c,1,595,60482,234736,33,Woman
516850,OSS,v7,1536,714,1536,864,2-17-2023,12-49-58,2,8,large,kitchen,kettle.png,misscaled,misscaled,1,zi,kitchen,k0_zi.png,1,0,zi,bathroom,b4_zi.png,m,1,568,60482,234736,33,Woman
516850,OSS,v7,1536,714,1536,864,2-17-2023,12-49-58,2,9,large,bathroom,hairdryer.png,misscaled,misscaled,0,zi,classroom,c4_zi.png,1,1,zi,classroom,c2_zi.png,c,1,555,60482,234736,33,Woman
516850,OSS,v7,1536,714,1536,864,2-17-2023,12-49-58,2,10,small,classroom,paperclip.png,scaled,scaled,0,zi,bathroom,b3_zi.png,1,1,zi,bathroom,b1_zi.png,c,1,517,60482,234736,33,Woman
516850,OSS,v7,1536,714,1536,864,2-17-2023,12-49-58,2,11,small,kitchen,sponge.png,scaled,scaled,0,zi,classroom,c0_zi.png,1,1,zi,classroom,c1_zi.png,c,1,693,60482,234736,33,Woman
516850,OSS,v7,1536,714,1536,864,2-17-2023,12-49-58,2,12,large,laundromat,detergent.png,scaled,misscaled,1,zi,laundromat,l2_zi.png,0,1,zo,laundromat,l4_zo.png,c,1,594,60482,234736,33,Woman
516850,OSS,v7,1536,714,1536,864,2-17-2023,12-49-58,2,13,large,classroom,computer.png,scaled,scaled,0,zo,laundromat,l1_zo.png,1,1,zo,laundromat,l3_zo.png,c,1,569,60482,234736,33,Woman
516850,OSS,v7,1536,714,1536,864,2-17-2023,12-49-58,2,14,small,laundromat,coins.png,scaled,misscaled,1,zo,laundromat,l5_zo.png,0,0,zi,classroom,c3_zi.png,c,0,606,60482,234736,33,Woman
516850,OSS,v7,1536,714,1536,864,2-17-2023,12-49-58,2,15,large,classroom,powerstrip.png,scaled,misscaled,0,zi,laundromat,l5_zi.png,0,0,zo,bathroom,b4_zo.png,m,1,669,60482,234736,33,Woman
165799,OSS,v7,1920,1009,1920,1080,2-15-2023,11-51-19,1,0,small,classroom,paperclip.png,scaled,scaled,0,zi,bathroom,b3_zi.png,1,0,zi,kitchen,k1_zi.png,m,1,1349,67039,135751,40,Man
165799,OSS,v7,1920,1009,1920,1080,2-15-2023,11-51-19,1,1,small,kitchen,saltshaker.png,scaled,misscaled,0,zo,classroom,c0_zo.png,0,0,zi,laundromat,l5_zi.png,m,1,1133,67039,135751,40,Man
165799,OSS,v7,1920,1009,1920,1080,2-15-2023,11-51-19,1,2,large,bathroom,loofah.png,misscaled,scaled,0,zo,classroom,c4_zo.png,0,0,zi,kitchen,k0_zi.png,m,1,1034,67039,135751,40,Man
165799,OSS,v7,1920,1009,1920,1080,2-15-2023,11-51-19,1,3,large,laundromat,shirt.png,misscaled,misscaled,0,zi,classroom,c4_zi.png,1,0,zi,bathroom,b2_zi.png,m,1,1013,67039,135751,40,Man
165799,OSS,v7,1920,1009,1920,1080,2-15-2023,11-51-19,1,4,large,laundromat,shorts.png,scaled,scaled,0,zo,kitchen,k5_zo.png,1,1,zo,kitchen,k0_zo.png,c,1,1059,67039,135751,40,Man
165799,OSS,v7,1920,1009,1920,1080,2-15-2023,11-51-19,1,5,large,bathroom,tissuebox.png,scaled,scaled,1,zo,bathroom,b1_zo.png,1,1,zo,bathroom,b4_zo.png,c,1,1310,67039,135751,40,Man
165799,OSS,v7,1920,1009,1920,1080,2-15-2023,11-51-19,1,6,small,classroom,eraser.png,misscaled,scaled,0,zi,kitchen,k2_zi.png,0,0,zo,bathroom,b5_zo.png,m,1,931,67039,135751,40,Man
165799,OSS,v7,1920,1009,1920,1080,2-15-2023,11-51-19,1,7,large,classroom,powerstrip.png,misscaled,misscaled,1,zi,classroom,c3_zi.png,1,1,zi,classroom,c1_zi.png,c,1,1447,67039,135751,40,Man
165799,OSS,v7,1920,1009,1920,1080,2-15-2023,11-51-19,1,8,small,kitchen,spoon.png,misscaled,misscaled,1,zo,kitchen,k1_zo.png,1,1,zo,kitchen,k3_zo.png,c,1,783,67039,135751,40,Man
165799,OSS,v7,1920,1009,1920,1080,2-15-2023,11-51-19,1,9,small,laundromat,coins.png,scaled,scaled,1,zi,laundromat,l1_zi.png,1,0,zi,kitchen,k5_zi.png,m,1,1055,67039,135751,40,Man
165799,OSS,v7,1920,1009,1920,1080,2-15-2023,11-51-19,1,10,small,laundromat,tidepod.png,misscaled,misscaled,1,zo,laundromat,l2_zo.png,1,1,zo,laundromat,l1_zo.png,c,1,898,67039,135751,40,Man
165799,OSS,v7,1920,1009,1920,1080,2-15-2023,11-51-19,1,11,small,bathroom,nailclipper.png,scaled,scaled,1,zi,bathroom,b1_zi.png,1,1,zi,bathroom,b5_zi.png,c,1,778,67039,135751,40,Man
165799,OSS,v7,1920,1009,1920,1080,2-15-2023,11-51-19,1,12,large,bathroom,hairdryer.png,scaled,misscaled,1,zi,bathroom,b4_zi.png,0,1,zo,bathroom,b2_zo.png,c,1,803,67039,135751,40,Man
165799,OSS,v7,1920,1009,1920,1080,2-15-2023,11-51-19,1,13,large,kitchen,kettle.png,misscaled,scaled,1,zo,kitchen,k4_zo.png,0,0,zi,laundromat,l4_zi.png,m,1,1036,67039,135751,40,Man
165799,OSS,v7,1920,1009,1920,1080,2-15-2023,11-51-19,1,14,small,bathroom,lipstick.png,scaled,misscaled,0,zo,laundromat,l5_zo.png,0,0,zi,kitchen,k4_zi.png,m,1,1098,67039,135751,40,Man
165799,OSS,v7,1920,1009,1920,1080,2-15-2023,11-51-19,1,15,large,kitchen,toaster.png,scaled,misscaled,0,zi,laundromat,l3_zi.png,0,1,zo,laundromat,l4_zo.png,c,1,758,67039,135751,40,Man
767960,OSS,v7,1920,969,1920,1080,2-16-2023,12-53-58,3,0,large,classroom,powerstrip.png,scaled,misscaled,0,zi,kitchen,k2_zi.png,0,0,zo,bathroom,b3_zo.png,m,1,1450,66115,220976,65,Woman
767960,OSS,v7,1920,969,1920,1080,2-16-2023,12-53-58,3,1,small,laundromat,tidepod.png,misscaled,scaled,0,zi,bathroom,b0_zi.png,0,0,zo,kitchen,k1_zo.png,m,1,945,66115,220976,65,Woman
767960,OSS,v7,1920,969,1920,1080,2-16-2023,12-53-58,3,2,large,bathroom,tissuebox.png,scaled,misscaled,1,zi,bathroom,b1_zi.png,0,0,zo,classroom,c2_zo.png,m,1,877,66115,220976,65,Woman
767960,OSS,v7,1920,969,1920,1080,2-16-2023,12-53-58,3,3,large,classroom,notebook.png,scaled,misscaled,1,zi,classroom,c2_zi.png,0,0,zo,laundromat,l5_zo.png,m,1,812,66115,220976,65,Woman
767960,OSS,v7,1920,969,1920,1080,2-16-2023,12-53-58,3,4,small,bathroom,nailclipper.png,scaled,misscaled,0,zo,laundromat,l3_zo.png,0,0,zi,kitchen,k3_zi.png,m,1,1138,66115,220976,65,Woman
767960,OSS,v7,1920,969,1920,1080,2-16-2023,12-53-58,3,5,large,laundromat,detergent.png,misscaled,scaled,1,zo,laundromat,l4_zo.png,0,1,zi,laundromat,l1_zi.png,c,1,760,66115,220976,65,Woman
767960,OSS,v7,1920,969,1920,1080,2-16-2023,12-53-58,3,6,large,classroom,computer.png,scaled,misscaled,0,zi,laundromat,l5_zi.png,0,0,zo,bathroom,b0_zo.png,m,1,779,66115,220976,65,Woman
767960,OSS,v7,1920,969,1920,1080,2-16-2023,12-53-58,3,7,small,laundromat,socks.png,scaled,misscaled,1,zo,laundromat,l1_zo.png,0,0,zi,classroom,c0_zi.png,m,1,810,66115,220976,65,Woman
767960,OSS,v7,1920,969,1920,1080,2-16-2023,12-53-58,3,8,large,laundromat,shirt.png,scaled,scaled,1,zo,laundromat,l0_zo.png,1,0,zo,bathroom,b5_zo.png,m,1,783,66115,220976,65,Woman
767960,OSS,v7,1920,969,1920,1080,2-16-2023,12-53-58,3,9,small,classroom,binderclip.png,scaled,scaled,0,zi,laundromat,l2_zi.png,1,1,zi,laundromat,l3_zi.png,c,1,706,66115,220976,65,Woman
767960,OSS,v7,1920,969,1920,1080,2-16-2023,12-53-58,3,10,small,laundromat,coins.png,misscaled,scaled,1,zi,laundromat,l4_zi.png,0,1,zo,laundromat,l2_zo.png,c,1,682,66115,220976,65,Woman
767960,OSS,v7,1920,969,1920,1080,2-16-2023,12-53-58,3,11,large,kitchen,kettle.png,misscaled,scaled,0,zo,bathroom,b2_zo.png,0,0,zi,laundromat,l0_zi.png,m,1,1255,66115,220976,65,Woman
767960,OSS,v7,1920,969,1920,1080,2-16-2023,12-53-58,3,12,small,classroom,paperclip.png,misscaled,misscaled,1,zo,classroom,c4_zo.png,1,1,zo,classroom,c1_zo.png,m,0,1308,66115,220976,65,Woman
767960,OSS,v7,1920,969,1920,1080,2-16-2023,12-53-58,3,13,small,kitchen,spoon.png,scaled,misscaled,0,zo,classroom,c0_zo.png,0,0,zi,bathroom,b4_zi.png,m,1,811,66115,220976,65,Woman
767960,OSS,v7,1920,969,1920,1080,2-16-2023,12-53-58,3,14,large,bathroom,loofah.png,misscaled,scaled,0,zo,kitchen,k3_zo.png,0,0,zi,classroom,c1_zi.png,m,1,1063,66115,220976,65,Woman
767960,OSS,v7,1920,969,1920,1080,2-16-2023,12-53-58,3,15,small,classroom,eraser.png,scaled,scaled,1,zi,classroom,c4_zi.png,1,0,zi,bathroom,b2_zi.png,m,1,823,66115,220976,65,Woman
277356,OSS,v7,1366,657,1366,768,2-15-2023,9-39-56,1,0,large,laundromat,shirt.png,scaled,scaled,0,zo,kitchen,k1_zo.png,1,0,zo,bathroom,b3_zo.png,m,1,1479,66545,126845,29,Man
277356,OSS,v7,1366,657,1366,768,2-15-2023,9-39-56,1,1,small,classroom,binderclip.png,scaled,scaled,1,zi,classroom,c2_zi.png,1,1,zi,classroom,c1_zi.png,c,1,1107,66545,126845,29,Man
277356,OSS,v7,1366,657,1366,768,2-15-2023,9-39-56,1,2,large,laundromat,detergent.png,scaled,scaled,0,zo,bathroom,b4_zo.png,1,0,zo,kitchen,k5_zo.png,m,1,918,66545,126845,29,Man
277356,OSS,v7,1366,657,1366,768,2-15-2023,9-39-56,1,3,small,kitchen,sponge.png,scaled,misscaled,0,zo,bathroom,b5_zo.png,0,1,zi,bathroom,b2_zi.png,c,1,1460,66545,126845,29,Man
277356,OSS,v7,1366,657,1366,768,2-15-2023,9-39-56,1,4,large,laundromat,shorts.png,scaled,scaled,1,zo,laundromat,l5_zo.png,1,1,zo,laundromat,l1_zo.png,c,1,767,66545,126845,29,Man
277356,OSS,v7,1366,657,1366,768,2-15-2023,9-39-56,1,5,small,laundromat,tidepod.png,scaled,scaled,0,zi,bathroom,b1_zi.png,1,0,zi,kitchen,k0_zi.png,none,0,2008,66545,126845,29,Man
277356,OSS,v7,1366,657,1366,768,2-15-2023,9-39-56,1,6,large,kitchen,kettle.png,misscaled,misscaled,0,zi,classroom,c0_zi.png,1,0,zi,laundromat,l3_zi.png,m,1,591,66545,126845,29,Man
277356,OSS,v7,1366,657,1366,768,2-15-2023,9-39-56,1,7,small,kitchen,saltshaker.png,scaled,misscaled,0,zo,laundromat,l4_zo.png,0,0,zi,bathroom,b4_zi.png,m,1,628,66545,126845,29,Man
277356,OSS,v7,1366,657,1366,768,2-15-2023,9-39-56,1,8,large,classroom,powerstrip.png,scaled,misscaled,0,zi,bathroom,b0_zi.png,0,0,zo,kitchen,k0_zo.png,m,1,799,66545,126845,29,Man
277356,OSS,v7,1366,657,1366,768,2-15-2023,9-39-56,1,9,small,bathroom,lipstick.png,scaled,misscaled,1,zo,bathroom,b0_zo.png,0,1,zi,bathroom,b5_zi.png,c,1,944,66545,126845,29,Man
277356,OSS,v7,1366,657,1366,768,2-15-2023,9-39-56,1,10,large,kitchen,toaster.png,scaled,misscaled,1,zi,kitchen,k2_zi.png,0,0,zo,laundromat,l2_zo.png,m,1,625,66545,126845,29,Man
277356,OSS,v7,1366,657,1366,768,2-15-2023,9-39-56,1,11,large,bathroom,tissuebox.png,scaled,misscaled,1,zi,bathroom,b3_zi.png,0,1,zo,bathroom,b2_zo.png,c,1,1030,66545,126845,29,Man
277356,OSS,v7,1366,657,1366,768,2-15-2023,9-39-56,1,12,small,laundromat,socks.png,misscaled,scaled,1,zi,laundromat,l2_zi.png,0,1,zo,laundromat,l0_zo.png,c,1,618,66545,126845,29,Man
277356,OSS,v7,1366,657,1366,768,2-15-2023,9-39-56,1,13,large,classroom,computer.png,misscaled,scaled,1,zo,classroom,c2_zo.png,0,0,zi,laundromat,l5_zi.png,m,1,931,66545,126845,29,Man
277356,OSS,v7,1366,657,1366,768,2-15-2023,9-39-56,1,14,small,bathroom,nailclipper.png,scaled,misscaled,1,zo,bathroom,b1_zo.png,0,0,zi,classroom,c5_zi.png,m,1,755,66545,126845,29,Man
277356,OSS,v7,1366,657,1366,768,2-15-2023,9-39-56,1,15,small,bathroom,floss.png,scaled,scaled,0,zi,kitchen,k3_zi.png,1,0,zi,laundromat,l1_zi.png,m,1,850,66545,126845,29,Man
422545,OSS,v7,2133,1017,1920,1027,2-16-2023,5-8-37,2,0,small,classroom,binderclip.png,scaled,misscaled,1,zo,classroom,c1_zo.png,0,0,zi,laundromat,l3_zi.png,m,1,921,65337,182335,43,Man
422545,OSS,v7,2133,1017,1920,1027,2-16-2023,5-8-37,2,1,small,bathroom,floss.png,misscaled,scaled,0,zi,laundromat,l1_zi.png,0,0,zo,kitchen,k3_zo.png,c,0,566,65337,182335,43,Man
422545,OSS,v7,2133,1017,1920,1027,2-16-2023,5-8-37,2,2,large,laundromat,shirt.png,misscaled,misscaled,1,zi,laundromat,l0_zi.png,1,0,zi,kitchen,k5_zi.png,c,0,730,65337,182335,43,Man
422545,OSS,v7,2133,1017,1920,1027,2-16-2023,5-8-37,2,3,small,bathroom,lipstick.png,misscaled,scaled,1,zi,bathroom,b5_zi.png,0,0,zo,classroom,c5_zo.png,m,1,796,65337,182335,43,Man
422545,OSS,v7,2133,1017,1920,1027,2-16-2023,5-8-37,2,4,large,laundromat,shorts.png,misscaled,scaled,0,zo,kitchen,k2_zo.png,0,1,zi,kitchen,k3_zi.png,c,1,756,65337,182335,43,Man
422545,OSS,v7,2133,1017,1920,1027,2-16-2023,5-8-37,2,5,small,kitchen,spoon.png,misscaled,misscaled,0,zo,laundromat,l4_zo.png,1,1,zo,laundromat,l3_zo.png,c,1,1003,65337,182335,43,Man
422545,OSS,v7,2133,1017,1920,1027,2-16-2023,5-8-37,2,6,small,bathroom,nailclipper.png,scaled,scaled,1,zi,bathroom,b3_zi.png,1,0,zi,kitchen,k2_zi.png,c,0,1037,65337,182335,43,Man
422545,OSS,v7,2133,1017,1920,1027,2-16-2023,5-8-37,2,7,large,laundromat,detergent.png,scaled,scaled,0,zo,kitchen,k4_zo.png,1,0,zo,bathroom,b3_zo.png,m,1,825,65337,182335,43,Man
422545,OSS,v7,2133,1017,1920,1027,2-16-2023,5-8-37,2,8,large,kitchen,pot.png,scaled,misscaled,0,zi,laundromat,l5_zi.png,0,1,zo,laundromat,l1_zo.png,c,1,722,65337,182335,43,Man
422545,OSS,v7,2133,1017,1920,1027,2-16-2023,5-8-37,2,9,small,kitchen,sponge.png,scaled,misscaled,0,zo,laundromat,l0_zo.png,0,0,zi,bathroom,b0_zi.png,m,1,1056,65337,182335,43,Man
422545,OSS,v7,2133,1017,1920,1027,2-16-2023,5-8-37,2,10,large,bathroom,hairdryer.png,scaled,scaled,1,zo,bathroom,b1_zo.png,1,1,zo,bathroom,b0_zo.png,c,1,789,65337,182335,43,Man
422545,OSS,v7,2133,1017,1920,1027,2-16-2023,5-8-37,2,11,large,bathroom,loofah.png,misscaled,misscaled,1,zi,bathroom,b4_zi.png,1,0,zi,classroom,c3_zi.png,m,1,907,65337,182335,43,Man
422545,OSS,v7,2133,1017,1920,1027,2-16-2023,5-8-37,2,12,large,classroom,powerstrip.png,scaled,misscaled,0,zi,kitchen,k0_zi.png,0,0,zo,laundromat,l5_zo.png,m,1,873,65337,182335,43,Man
422545,OSS,v7,2133,1017,1920,1027,2-16-2023,5-8-37,2,13,large,classroom,computer.png,scaled,scaled,1,zo,classroom,c2_zo.png,1,1,zo,classroom,c0_zo.png,c,1,638,65337,182335,43,Man
422545,OSS,v7,2133,1017,1920,1027,2-16-2023,5-8-37,2,14,small,classroom,paperclip.png,scaled,misscaled,1,zo,classroom,c4_zo.png,0,1,zi,classroom,c1_zi.png,c,1,742,65337,182335,43,Man
422545,OSS,v7,2133,1017,1920,1027,2-16-2023,5-8-37,2,15,small,classroom,eraser.png,scaled,scaled,0,zi,laundromat,l2_zi.png,1,0,zi,kitchen,k1_zi.png,m,1,842,65337,182335,43,Man
736839,OSS,v7,1536,809,1536,960,2-16-2023,12-23-46,3,0,large,classroom,computer.png,scaled,scaled,1,zo,classroom,c3_zo.png,1,1,zo,classroom,c1_zo.png,c,1,711,63728,468415,35,Man
736839,OSS,v7,1536,809,1536,960,2-16-2023,12-23-46,3,1,small,kitchen,sponge.png,misscaled,misscaled,0,zo,laundromat,l1_zo.png,1,0,zo,bathroom,b0_zo.png,m,1,886,63728,468415,35,Man
736839,OSS,v7,1536,809,1536,960,2-16-2023,12-23-46,3,2,small,classroom,binderclip.png,misscaled,scaled,0,zi,bathroom,b1_zi.png,0,0,zo,kitchen,k0_zo.png,m,1,893,63728,468415,35,Man
736839,OSS,v7,1536,809,1536,960,2-16-2023,12-23-46,3,3,small,laundromat,socks.png,scaled,scaled,1,zi,laundromat,l4_zi.png,1,1,zi,laundromat,l1_zi.png,c,1,999,63728,468415,35,Man
736839,OSS,v7,1536,809,1536,960,2-16-2023,12-23-46,3,4,large,laundromat,shirt.png,misscaled,scaled,1,zo,laundromat,l0_zo.png,0,0,zi,classroom,c1_zi.png,m,1,686,63728,468415,35,Man
736839,OSS,v7,1536,809,1536,960,2-16-2023,12-23-46,3,5,small,kitchen,spoon.png,scaled,misscaled,1,zo,kitchen,k1_zo.png,0,0,zi,bathroom,b3_zi.png,m,1,840,63728,468415,35,Man
736839,OSS,v7,1536,809,1536,960,2-16-2023,12-23-46,3,6,large,kitchen,kettle.png,misscaled,scaled,0,zo,classroom,c5_zo.png,0,0,zi,laundromat,l0_zi.png,m,1,806,63728,468415,35,Man
736839,OSS,v7,1536,809,1536,960,2-16-2023,12-23-46,3,7,large,bathroom,tissuebox.png,scaled,scaled,0,zo,kitchen,k2_zo.png,1,1,zo,kitchen,k4_zo.png,c,1,609,63728,468415,35,Man
736839,OSS,v7,1536,809,1536,960,2-16-2023,12-23-46,3,8,small,kitchen,saltshaker.png,scaled,scaled,1,zi,kitchen,k5_zi.png,1,1,zi,kitchen,k2_zi.png,c,1,624,63728,468415,35,Man
736839,OSS,v7,1536,809,1536,960,2-16-2023,12-23-46,3,9,small,bathroom,nailclipper.png,misscaled,misscaled,1,zo,bathroom,b4_zo.png,1,1,zo,bathroom,b1_zo.png,c,1,1007,63728,468415,35,Man
736839,OSS,v7,1536,809,1536,960,2-16-2023,12-23-46,3,10,large,kitchen,toaster.png,misscaled,misscaled,0,zi,classroom,c0_zi.png,1,1,zi,classroom,c4_zi.png,c,1,812,63728,468415,35,Man
736839,OSS,v7,1536,809,1536,960,2-16-2023,12-23-46,3,11,small,laundromat,coins.png,scaled,misscaled,0,zo,classroom,c0_zo.png,0,1,zi,classroom,c2_zi.png,c,1,963,63728,468415,35,Man
736839,OSS,v7,1536,809,1536,960,2-16-2023,12-23-46,3,12,large,bathroom,loofah.png,misscaled,misscaled,1,zi,bathroom,b5_zi.png,1,0,zi,classroom,c3_zi.png,m,1,690,63728,468415,35,Man
736839,OSS,v7,1536,809,1536,960,2-16-2023,12-23-46,3,13,large,laundromat,detergent.png,scaled,misscaled,0,zi,classroom,c5_zi.png,0,0,zo,bathroom,b3_zo.png,m,1,946,63728,468415,35,Man
736839,OSS,v7,1536,809,1536,960,2-16-2023,12-23-46,3,14,large,laundromat,shorts.png,scaled,misscaled,1,zi,laundromat,l2_zi.png,0,1,zo,laundromat,l5_zo.png,c,1,567,63728,468415,35,Man
736839,OSS,v7,1536,809,1536,960,2-16-2023,12-23-46,3,15,small,laundromat,tidepod.png,scaled,scaled,0,zi,kitchen,k4_zi.png,1,1,zi,kitchen,k0_zi.png,m,0,1079,63728,468415,35,Man
398323,OSS,v7,1366,649,1366,768,2-15-2023,13-30-21,2,0,small,kitchen,saltshaker.png,misscaled,misscaled,1,zo,kitchen,k2_zo.png,1,1,zo,kitchen,k3_zo.png,c,1,545,67786,5512300,32,Man
398323,OSS,v7,1366,649,1366,768,2-15-2023,13-30-21,2,1,small,kitchen,sponge.png,misscaled,scaled,1,zi,kitchen,k2_zi.png,0,1,zo,kitchen,k5_zo.png,c,1,752,67786,5512300,32,Man
398323,OSS,v7,1366,649,1366,768,2-15-2023,13-30-21,2,2,large,bathroom,hairdryer.png,scaled,scaled,1,zo,bathroom,b1_zo.png,1,1,zo,bathroom,b2_zo.png,c,1,583,67786,5512300,32,Man
398323,OSS,v7,1366,649,1366,768,2-15-2023,13-30-21,2,3,large,kitchen,toaster.png,misscaled,scaled,0,zo,classroom,c5_zo.png,0,1,zi,classroom,c1_zi.png,c,1,865,67786,5512300,32,Man
398323,OSS,v7,1366,649,1366,768,2-15-2023,13-30-21,2,4,small,bathroom,floss.png,misscaled,misscaled,0,zo,kitchen,k1_zo.png,1,0,zo,classroom,c0_zo.png,m,1,1357,67786,5512300,32,Man
398323,OSS,v7,1366,649,1366,768,2-15-2023,13-30-21,2,5,large,laundromat,detergent.png,misscaled,misscaled,0,zi,classroom,c3_zi.png,1,1,zi,classroom,c5_zi.png,c,1,1313,67786,5512300,32,Man
398323,OSS,v7,1366,649,1366,768,2-15-2023,13-30-21,2,6,small,kitchen,spoon.png,misscaled,misscaled,0,zo,bathroom,b0_zo.png,1,0,zo,classroom,c1_zo.png,m,1,1108,67786,5512300,32,Man
398323,OSS,v7,1366,649,1366,768,2-15-2023,13-30-21,2,7,large,laundromat,shirt.png,scaled,misscaled,1,zi,laundromat,l0_zi.png,0,1,zo,laundromat,l3_zo.png,c,1,1007,67786,5512300,32,Man
398323,OSS,v7,1366,649,1366,768,2-15-2023,13-30-21,2,8,small,bathroom,lipstick.png,misscaled,scaled,0,zi,classroom,c0_zi.png,0,0,zo,laundromat,l2_zo.png,m,1,1022,67786,5512300,32,Man
398323,OSS,v7,1366,649,1366,768,2-15-2023,13-30-21,2,9,large,laundromat,shorts.png,scaled,scaled,0,zo,bathroom,b5_zo.png,1,0,zo,classroom,c3_zo.png,m,1,1277,67786,5512300,32,Man
398323,OSS,v7,1366,649,1366,768,2-15-2023,13-30-21,2,10,small,classroom,paperclip.png,misscaled,misscaled,1,zo,classroom,c4_zo.png,1,1,zo,classroom,c2_zo.png,c,1,1245,67786,5512300,32,Man
398323,OSS,v7,1366,649,1366,768,2-15-2023,13-30-21,2,11,small,bathroom,nailclipper.png,scaled,scaled,1,zi,bathroom,b3_zi.png,1,0,zi,laundromat,l2_zi.png,m,1,1147,67786,5512300,32,Man
398323,OSS,v7,1366,649,1366,768,2-15-2023,13-30-21,2,12,large,kitchen,pot.png,misscaled,scaled,1,zo,kitchen,k4_zo.png,0,0,zi,laundromat,l3_zi.png,m,1,1555,67786,5512300,32,Man
398323,OSS,v7,1366,649,1366,768,2-15-2023,13-30-21,2,13,large,bathroom,tissuebox.png,misscaled,misscaled,1,zi,bathroom,b2_zi.png,1,0,zi,classroom,c2_zi.png,m,1,1212,67786,5512300,32,Man
398323,OSS,v7,1366,649,1366,768,2-15-2023,13-30-21,2,14,large,classroom,notebook.png,misscaled,misscaled,0,zi,bathroom,b4_zi.png,1,1,zi,bathroom,b1_zi.png,c,1,1218,67786,5512300,32,Man
398323,OSS,v7,1366,649,1366,768,2-15-2023,13-30-21,2,15,small,classroom,binderclip.png,misscaled,scaled,0,zi,laundromat,l1_zi.png,0,1,zo,laundromat,l5_zo.png,c,1,1082,67786,5512300,32,Man
476077,OSS,v7,1330,992,2048,1152,2-15-2023,11-38-24,1,0,small,classroom,eraser.png,misscaled,scaled,1,zi,classroom,c3_zi.png,0,0,zo,kitchen,k1_zo.png,m,1,554,59682,114661,34,Man
476077,OSS,v7,1330,992,2048,1152,2-15-2023,11-38-24,1,1,large,kitchen,pot.png,scaled,misscaled,1,zi,kitchen,k2_zi.png,0,1,zo,kitchen,k5_zo.png,c,1,480,59682,114661,34,Man
476077,OSS,v7,1330,992,2048,1152,2-15-2023,11-38-24,1,2,small,bathroom,floss.png,scaled,misscaled,0,zo,laundromat,l3_zo.png,0,0,zi,classroom,c4_zi.png,m,1,464,59682,114661,34,Man
476077,OSS,v7,1330,992,2048,1152,2-15-2023,11-38-24,1,3,large,kitchen,kettle.png,scaled,misscaled,1,zi,kitchen,k4_zi.png,0,0,zo,classroom,c5_zo.png,m,1,512,59682,114661,34,Man
476077,OSS,v7,1330,992,2048,1152,2-15-2023,11-38-24,1,4,large,bathroom,tissuebox.png,misscaled,scaled,0,zo,classroom,c2_zo.png,0,1,zi,classroom,c0_zi.png,c,1,604,59682,114661,34,Man
476077,OSS,v7,1330,992,2048,1152,2-15-2023,11-38-24,1,5,small,kitchen,saltshaker.png,misscaled,misscaled,1,zo,kitchen,k0_zo.png,1,1,zo,kitchen,k3_zo.png,c,1,446,59682,114661,34,Man
476077,OSS,v7,1330,992,2048,1152,2-15-2023,11-38-24,1,6,small,kitchen,spoon.png,scaled,misscaled,1,zo,kitchen,k2_zo.png,0,1,zi,kitchen,k0_zi.png,c,1,516,59682,114661,34,Man
476077,OSS,v7,1330,992,2048,1152,2-15-2023,11-38-24,1,7,small,bathroom,lipstick.png,misscaled,scaled,0,zi,classroom,c1_zi.png,0,0,zo,laundromat,l2_zo.png,m,1,579,59682,114661,34,Man
