subjID,experimentName,versionName,windowWidth,Z-Scored RT,windowHeight,screenWidth,screenHeight,startDate,startTime,pracTries,trialNum,objectSize,objectCategory,misscaled,object,objectScene1SemanticCongruency,scene1ZoomName,scene1Category,scene1,keyPress,accuracy,RT,ratingTrialNum,rating,ratingObject,ratingScene,experimentTime,totalTime,age,gender
388766,OSSe4,v1,1920,0.3888876684111594,937,1920,1080,5-15-2023,9-53-43,1,0,small,bathroom,misscaled,lipstick.png,0,zo,laundromat,l4_zo.png,m,1,1341,0,5,lipstick.png,l4_zo.png,141889,273484,36,Man
388766,OSSe4,v1,1920,1.357695544102118,937,1920,1080,5-15-2023,9-53-43,1,1,small,kitchen,misscaled,sponge.png,0,zo,classroom,c0_zo.png,m,1,1554,1,5,sponge.png,c0_zo.png,141889,273484,36,Man
388766,OSSe4,v1,1920,-1.4304698446235045,937,1920,1080,5-15-2023,9-53-43,1,2,large,laundromat,misscaled,shirt.png,0,zi,classroom,c0_zi.png,c,0,941,2,1,shirt.png,c0_zi.png,141889,273484,36,Man
388766,OSSe4,v1,1920,0.0022741968912933295,937,1920,1080,5-15-2023,9-53-43,1,3,small,laundromat,scaled,tidepod.png,1,zi,laundromat,l1_zi.png,c,1,1256,3,4,tidepod.png,l1_zi.png,141889,273484,36,Man
388766,OSSe4,v1,1920,-0.27972621762907957,937,1920,1080,5-15-2023,9-53-43,1,4,small,classroom,scaled,binderclip.png,0,zi,kitchen,k1_zi.png,c,0,1194,4,4,binderclip.png,k1_zi.png,141889,273484,36,Man
388766,OSSe4,v1,1920,-0.6163073575404924,937,1920,1080,5-15-2023,9-53-43,1,5,large,classroom,scaled,clipboard.png,1,zo,classroom,c1_zo.png,c,1,1120,5,3,clipboard.png,c1_zo.png,141889,273484,36,Man
388766,OSSe4,v1,1920,-0.8255334715394786,937,1920,1080,5-15-2023,9-53-43,1,6,large,bathroom,scaled,loofah.png,0,zo,classroom,c2_zo.png,m,1,1074,6,5,loofah.png,c2_zo.png,141889,273484,36,Man
388766,OSSe4,v1,1920,0.5526298445842791,937,1920,1080,5-15-2023,9-53-43,1,7,small,bathroom,misscaled,nailclipper.png,1,zo,bathroom,b5_zo.png,m,0,1377,7,5,nailclipper.png,b5_zo.png,141889,273484,36,Man
388766,OSSe4,v1,1920,0.48440393784547925,937,1920,1080,5-15-2023,9-53-43,1,8,large,kitchen,scaled,toaster.png,0,zo,bathroom,b2_zo.png,m,1,1362,8,3,toaster.png,b2_zo.png,141889,273484,36,Man
388766,OSSe4,v1,1920,1.607857202144384,937,1920,1080,5-15-2023,9-53-43,1,9,small,bathroom,misscaled,floss.png,1,zo,bathroom,b1_zo.png,c,1,1609,9,5,floss.png,b1_zo.png,141889,273484,36,Man
388766,OSSe4,v1,1920,1.0575015544513984,937,1920,1080,5-15-2023,9-53-43,1,10,large,classroom,misscaled,notebook.png,1,zi,classroom,c2_zi.png,c,1,1488,10,1,notebook.png,c2_zi.png,141889,273484,36,Man
388766,OSSe4,v1,1920,0.9665336787996651,937,1920,1080,5-15-2023,9-53-43,1,11,small,kitchen,scaled,saltshaker.png,0,zi,bathroom,b1_zi.png,m,1,1468,11,3,saltshaker.png,b1_zi.png,141889,273484,36,Man
388766,OSSe4,v1,1920,-0.28882300519425286,937,1920,1080,5-15-2023,9-53-43,1,12,large,laundromat,misscaled,shorts.png,0,zi,kitchen,k2_zi.png,m,1,1192,12,1,shorts.png,k2_zi.png,141889,273484,36,Man
388766,OSSe4,v1,1920,-0.49350072541065254,937,1920,1080,5-15-2023,9-53-43,1,13,small,classroom,scaled,eraser.png,1,zi,classroom,c3_zi.png,c,1,1147,13,4,eraser.png,c3_zi.png,141889,273484,36,Man
388766,OSSe4,v1,1920,-2.0263094301423568,937,1920,1080,5-15-2023,9-53-43,1,14,large,bathroom,scaled,hairdryer.png,1,zo,bathroom,b3_zo.png,c,1,810,14,5,hairdryer.png,b3_zo.png,141889,273484,36,Man
388766,OSSe4,v1,1920,-0.45711357514995926,937,1920,1080,5-15-2023,9-53-43,1,15,large,bathroom,misscaled,tissuebox.png,1,zi,bathroom,b0_zi.png,c,1,1155,15,1,tissuebox.png,b0_zi.png,141889,273484,36,Man
566526,OSSe4,v1,1240,-0.23420521858597093,644,1536,864,5-15-2023,11-7-44,2,0,small,laundromat,scaled,tidepod.png,0,zi,bathroom,b2_zi.png,c,0,1209,0,3,tidepod.png,b2_zi.png,164158,281189,61,Man
566526,OSSe4,v1,1240,2.1110684971029814,644,1536,864,5-15-2023,11-7-44,2,1,large,bathroom,misscaled,hairdryer.png,1,zi,bathroom,b1_zi.png,c,1,1664,1,3,hairdryer.png,b1_zi.png,164158,281189,61,Man
566526,OSSe4,v1,1240,-1.3063303457580635,644,1536,864,5-15-2023,11-7-44,2,2,small,laundromat,misscaled,coins.png,0,zo,bathroom,b1_zo.png,m,1,1001,2,5,coins.png,b1_zo.png,164158,281189,61,Man
566526,OSSe4,v1,1240,0.013208272299896573,644,1536,864,5-15-2023,11-7-44,2,3,small,bathroom,misscaled,nailclipper.png,0,zo,classroom,c4_zo.png,m,1,1257,3,5,nailclipper.png,c4_zo.png,164158,281189,61,Man
566526,OSSe4,v1,1240,1.4152180539864792,644,1536,864,5-15-2023,11-7-44,2,4,small,laundromat,misscaled,socks.png,1,zo,laundromat,l3_zo.png,c,1,1529,4,5,socks.png,l3_zo.png,164158,281189,61,Man
566526,OSSe4,v1,1240,0.5080352540716316,644,1536,864,5-15-2023,11-7-44,2,5,large,classroom,scaled,computer.png,1,zo,classroom,c2_zo.png,c,1,1353,5,3,computer.png,c2_zo.png,164158,281189,61,Man
566526,OSSe4,v1,1240,-1.1465424662276074,644,1536,864,5-15-2023,11-7-44,2,6,large,laundromat,misscaled,shirt.png,0,zi,kitchen,k1_zi.png,c,0,1032,6,1,shirt.png,k1_zi.png,164158,281189,61,Man
566526,OSSe4,v1,1240,-0.9403645571560512,644,1536,864,5-15-2023,11-7-44,2,7,small,bathroom,misscaled,floss.png,1,zo,bathroom,b3_zo.png,c,1,1072,7,3,floss.png,b3_zo.png,164158,281189,61,Man
566526,OSSe4,v1,1240,-0.5692443208272499,644,1536,864,5-15-2023,11-7-44,2,8,small,bathroom,scaled,lipstick.png,0,zi,classroom,c1_zi.png,m,1,1144,8,4,lipstick.png,c1_zi.png,164158,281189,61,Man
566526,OSSe4,v1,1240,1.2399668312756562,644,1536,864,5-15-2023,11-7-44,2,9,large,classroom,scaled,clipboard.png,1,zo,classroom,c0_zo.png,c,1,1495,9,5,clipboard.png,c0_zo.png,164158,281189,61,Man
566526,OSSe4,v1,1240,-0.7393410958112838,644,1536,864,5-15-2023,11-7-44,2,10,small,classroom,scaled,paperclip.png,1,zi,classroom,c2_zi.png,c,1,1111,10,4,paperclip.png,c2_zi.png,164158,281189,61,Man
566526,OSSe4,v1,1240,-0.7341866480844949,644,1536,864,5-15-2023,11-7-44,2,11,large,bathroom,scaled,loofah.png,0,zo,classroom,c3_zo.png,c,0,1112,11,5,loofah.png,c3_zo.png,164158,281189,61,Man
566526,OSSe4,v1,1240,-0.6929510662701837,644,1536,864,5-15-2023,11-7-44,2,12,large,laundromat,scaled,shorts.png,0,zo,classroom,c5_zo.png,m,1,1120,12,4,shorts.png,c5_zo.png,164158,281189,61,Man
566526,OSSe4,v1,1240,0.9100821767611663,644,1536,864,5-15-2023,11-7-44,2,13,small,classroom,scaled,binderclip.png,1,zi,classroom,c3_zi.png,c,1,1431,13,3,binderclip.png,c3_zi.png,164158,281189,61,Man
566526,OSSe4,v1,1240,0.24515842000539737,644,1536,864,5-15-2023,11-7-44,2,14,large,laundromat,misscaled,detergent.png,1,zi,laundromat,l5_zi.png,c,1,1302,14,3,detergent.png,l5_zi.png,164158,281189,61,Man
566526,OSSe4,v1,1240,-0.07957178678230374,644,1536,864,5-15-2023,11-7-44,2,15,large,kitchen,misscaled,toaster.png,0,zi,laundromat,l3_zi.png,m,1,1239,15,2,toaster.png,l3_zi.png,164158,281189,61,Man
752926,OSSe4,v1,1422,-0.2872044749195524,632,1280,720,5-15-2023,9-10-44,1,0,small,laundromat,scaled,socks.png,1,zi,laundromat,l4_zi.png,c,1,1112,0,3,socks.png,l4_zi.png,123978,204828,59,Man
752926,OSSe4,v1,1422,-1.32209882013477,632,1280,720,5-15-2023,9-10-44,1,1,large,laundromat,scaled,shorts.png,1,zo,laundromat,l3_zo.png,c,1,869,1,5,shorts.png,l3_zo.png,123978,204828,59,Man
752926,OSSe4,v1,1422,-0.22332210793095875,632,1280,720,5-15-2023,9-10-44,1,2,small,bathroom,scaled,floss.png,0,zi,classroom,c3_zi.png,c,0,1127,2,5,floss.png,c3_zi.png,123978,204828,59,Man
752926,OSSe4,v1,1422,-1.2582164531461764,632,1280,720,5-15-2023,9-10-44,1,3,large,laundromat,scaled,detergent.png,1,zo,laundromat,l4_zo.png,c,1,884,3,4,detergent.png,l4_zo.png,123978,204828,59,Man
752926,OSSe4,v1,1422,-0.7982634108283019,632,1280,720,5-15-2023,9-10-44,1,4,small,bathroom,scaled,nailclipper.png,1,zi,bathroom,b1_zi.png,c,1,992,4,4,nailclipper.png,b1_zi.png,123978,204828,59,Man
752926,OSSe4,v1,1422,-0.5256986450103022,632,1280,720,5-15-2023,9-10-44,1,5,large,classroom,misscaled,notebook.png,1,zi,classroom,c2_zi.png,m,0,1056,5,1,notebook.png,c2_zi.png,123978,204828,59,Man
752926,OSSe4,v1,1422,-1.006945809657708,632,1280,720,5-15-2023,9-10-44,1,6,large,bathroom,misscaled,tissuebox.png,1,zi,bathroom,b3_zi.png,c,1,943,6,1,tissuebox.png,b3_zi.png,123978,204828,59,Man
752926,OSSe4,v1,1422,-0.27868682598774,632,1280,720,5-15-2023,9-10-44,1,7,large,bathroom,misscaled,hairdryer.png,0,zi,classroom,c5_zi.png,m,1,1114,7,1,hairdryer.png,c5_zi.png,123978,204828,59,Man
752926,OSSe4,v1,1422,1.020254636113665,632,1280,720,5-15-2023,9-10-44,1,8,small,kitchen,scaled,saltshaker.png,0,zi,classroom,c0_zi.png,m,1,1419,8,3,saltshaker.png,c0_zi.png,123978,204828,59,Man
752926,OSSe4,v1,1422,-0.6704986768511145,632,1280,720,5-15-2023,9-10-44,1,9,small,bathroom,misscaled,lipstick.png,1,zo,bathroom,b5_zo.png,c,1,1022,9,5,lipstick.png,b5_zo.png,123978,204828,59,Man
752926,OSSe4,v1,1422,-0.2744280015218337,632,1280,720,5-15-2023,9-10-44,1,10,small,laundromat,misscaled,coins.png,0,zo,bathroom,b3_zo.png,m,1,1115,10,5,coins.png,b3_zo.png,123978,204828,59,Man
752926,OSSe4,v1,1422,0.8413840085456027,632,1280,720,5-15-2023,9-10-44,1,11,large,bathroom,scaled,loofah.png,0,zo,kitchen,k2_zo.png,m,1,1377,11,5,loofah.png,k2_zo.png,123978,204828,59,Man
752926,OSSe4,v1,1422,0.24088975885282202,632,1280,720,5-15-2023,9-10-44,1,12,large,kitchen,scaled,kettle.png,0,zo,laundromat,l5_zo.png,m,1,1236,12,3,kettle.png,l5_zo.png,123978,204828,59,Man
752926,OSSe4,v1,1422,1.9146077739539766,632,1280,720,5-15-2023,9-10-44,1,13,large,classroom,misscaled,computer.png,0,zi,laundromat,l3_zi.png,m,1,1629,13,1,computer.png,l3_zi.png,123978,204828,59,Man
752926,OSSe4,v1,1422,1.1139487743636023,632,1280,720,5-15-2023,9-10-44,1,14,small,classroom,misscaled,binderclip.png,0,zo,laundromat,l0_zo.png,m,1,1441,14,5,binderclip.png,l0_zo.png,123978,204828,59,Man
752926,OSSe4,v1,1422,1.5142782741587895,632,1280,720,5-15-2023,9-10-44,1,15,small,laundromat,misscaled,tidepod.png,1,zo,laundromat,l2_zo.png,c,1,1535,15,4,tidepod.png,l2_zo.png,123978,204828,59,Man
986867,OSSe4,v1,1512,-0.3079502214584553,865,1512,982,5-15-2023,10-52-42,1,0,large,laundromat,scaled,shirt.png,1,zo,laundromat,l1_zo.png,c,1,715,0,3,shirt.png,l1_zo.png,162183,288467,34,Man
986867,OSSe4,v1,1512,-0.38469794020199555,865,1512,982,5-15-2023,10-52-42,1,1,large,kitchen,scaled,pot.png,1,zo,kitchen,k3_zo.png,c,1,710,1,3,pot.png,k3_zo.png,162183,288467,34,Man
986867,OSSe4,v1,1512,-0.3693483964532875,865,1512,982,5-15-2023,10-52-42,1,2,small,kitchen,misscaled,saltshaker.png,1,zo,kitchen,k4_zo.png,c,1,711,2,3,saltshaker.png,k4_zo.png,162183,288467,34,Man
986867,OSSe4,v1,1512,1.9637822533503362,865,1512,982,5-15-2023,10-52-42,1,3,small,kitchen,misscaled,spoon.png,0,zo,classroom,c0_zo.png,m,1,863,3,4,spoon.png,c0_zo.png,162183,288467,34,Man
986867,OSSe4,v1,1512,0.6283719472127358,865,1512,982,5-15-2023,10-52-42,1,4,large,bathroom,scaled,loofah.png,0,zo,classroom,c2_zo.png,m,1,776,4,5,loofah.png,c2_zo.png,162183,288467,34,Man
986867,OSSe4,v1,1512,1.4572473096429706,865,1512,982,5-15-2023,10-52-42,1,5,small,laundromat,misscaled,tidepod.png,1,zo,laundromat,l4_zo.png,c,1,830,5,3,tidepod.png,l4_zo.png,162183,288467,34,Man
986867,OSSe4,v1,1512,-0.7070383589248646,865,1512,982,5-15-2023,10-52-42,1,6,large,classroom,misscaled,computer.png,0,zi,bathroom,b5_zi.png,m,1,689,6,4,computer.png,b5_zi.png,162183,288467,34,Man
986867,OSSe4,v1,1512,-0.47679520269424386,865,1512,982,5-15-2023,10-52-42,1,7,small,classroom,misscaled,binderclip.png,0,zo,kitchen,k2_zo.png,m,1,704,7,4,binderclip.png,k2_zo.png,162183,288467,34,Man
986867,OSSe4,v1,1512,-0.7684365339196968,865,1512,982,5-15-2023,10-52-42,1,8,small,laundromat,scaled,socks.png,0,zi,kitchen,k1_zi.png,m,1,685,8,4,socks.png,k1_zi.png,162183,288467,34,Man
986867,OSSe4,v1,1512,-0.9372815151554854,865,1512,982,5-15-2023,10-52-42,1,9,large,classroom,misscaled,notebook.png,1,zi,classroom,c5_zi.png,c,1,674,9,3,notebook.png,c5_zi.png,162183,288467,34,Man
986867,OSSe4,v1,1512,-0.8912328839093612,865,1512,982,5-15-2023,10-52-42,1,10,large,classroom,scaled,clipboard.png,0,zo,laundromat,l0_zo.png,c,0,677,10,4,clipboard.png,l0_zo.png,162183,288467,34,Man
986867,OSSe4,v1,1512,1.8256363596119638,865,1512,982,5-15-2023,10-52-42,1,11,small,classroom,scaled,paperclip.png,1,zi,classroom,c2_zi.png,c,1,854,11,3,paperclip.png,c2_zi.png,162183,288467,34,Man
986867,OSSe4,v1,1512,-0.7530869901709888,865,1512,982,5-15-2023,10-52-42,1,12,large,laundromat,misscaled,detergent.png,1,zi,laundromat,l1_zi.png,m,0,686,12,3,detergent.png,l1_zi.png,162183,288467,34,Man
986867,OSSe4,v1,1512,-0.47679520269424386,865,1512,982,5-15-2023,10-52-42,1,13,small,laundromat,scaled,coins.png,0,zi,classroom,c1_zi.png,m,1,704,13,5,coins.png,c1_zi.png,162183,288467,34,Man
986867,OSSe4,v1,1512,0.8432655596946486,865,1512,982,5-15-2023,10-52-42,1,14,large,laundromat,misscaled,shorts.png,0,zi,classroom,c4_zi.png,m,1,790,14,1,shorts.png,c4_zi.png,162183,288467,34,Man
986867,OSSe4,v1,1512,-0.6456401839300324,865,1512,982,5-15-2023,10-52-42,1,15,small,bathroom,scaled,floss.png,1,zi,bathroom,b3_zi.png,c,1,693,15,3,floss.png,b3_zi.png,162183,288467,34,Man
657504,OSSe4,v1,1280,1.5682674471404545,881,1280,1024,5-15-2023,7-47-25,3,2,large,bathroom,misscaled,hairdryer.png,1,zi,bathroom,b1_zi.png,c,1,1824,2,4,hairdryer.png,b1_zi.png,192358,440299,45,Woman
657504,OSSe4,v1,1280,0.2363142728567808,881,1280,1024,5-15-2023,7-47-25,3,3,large,kitchen,scaled,toaster.png,0,zo,laundromat,l0_zo.png,m,1,1514,3,3,toaster.png,l0_zo.png,192358,440299,45,Woman
657504,OSSe4,v1,1280,0.9839266997127782,881,1280,1024,5-15-2023,7-47-25,3,5,large,kitchen,scaled,kettle.png,1,zo,kitchen,k2_zo.png,c,1,1688,5,1,kettle.png,k2_zo.png,192358,440299,45,Woman
657504,OSSe4,v1,1280,0.6874597028560896,881,1280,1024,5-15-2023,7-47-25,3,6,small,kitchen,scaled,spoon.png,0,zi,laundromat,l2_zi.png,c,0,1619,6,5,spoon.png,l2_zi.png,192358,440299,45,Woman
657504,OSSe4,v1,1280,-1.542487708283351,881,1280,1024,5-15-2023,7-47-25,3,7,small,bathroom,misscaled,nailclipper.png,0,zo,laundromat,l2_zo.png,c,0,1100,7,4,nailclipper.png,l2_zo.png,192358,440299,45,Woman
657504,OSSe4,v1,1280,-0.7862820351416525,881,1280,1024,5-15-2023,7-47-25,3,8,small,laundromat,misscaled,coins.png,1,zo,laundromat,l3_zo.png,c,1,1276,8,4,coins.png,l3_zo.png,192358,440299,45,Woman
657504,OSSe4,v1,1280,-1.211647726283858,881,1280,1024,5-15-2023,7-47-25,3,9,large,classroom,misscaled,notebook.png,1,zi,classroom,c3_zi.png,m,0,1177,9,1,notebook.png,c3_zi.png,192358,440299,45,Woman
657504,OSSe4,v1,1280,0.9323672219985716,881,1280,1024,5-15-2023,7-47-25,3,10,large,laundromat,scaled,shirt.png,1,zo,laundromat,l1_zo.png,c,1,1676,10,1,shirt.png,l1_zo.png,192358,440299,45,Woman
657504,OSSe4,v1,1280,-0.8163583971416064,881,1280,1024,5-15-2023,7-47-25,3,11,large,classroom,misscaled,computer.png,0,zi,bathroom,b2_zi.png,m,1,1269,11,5,computer.png,b2_zi.png,192358,440299,45,Woman
657504,OSSe4,v1,1280,-0.4769251688564122,881,1280,1024,5-15-2023,7-47-25,3,12,small,kitchen,misscaled,sponge.png,1,zo,kitchen,k0_zo.png,c,1,1348,12,2,sponge.png,k0_zo.png,192358,440299,45,Woman
657504,OSSe4,v1,1280,-0.05155947771420672,881,1280,1024,5-15-2023,7-47-25,3,13,large,laundromat,scaled,shorts.png,0,zo,classroom,c3_zo.png,m,1,1447,13,5,shorts.png,c3_zo.png,192358,440299,45,Woman
657504,OSSe4,v1,1280,-0.6831630797132391,881,1280,1024,5-15-2023,7-47-25,3,14,small,kitchen,scaled,saltshaker.png,1,zi,kitchen,k5_zi.png,c,1,1300,14,1,saltshaker.png,k5_zi.png,192358,440299,45,Woman
657504,OSSe4,v1,1280,1.1600882485696513,881,1280,1024,5-15-2023,7-47-25,3,15,small,bathroom,scaled,floss.png,1,zi,bathroom,b0_zi.png,c,1,1729,15,1,floss.png,b0_zi.png,192358,440299,45,Woman
425810,OSSe4,v1,1920,-0.5890099962386561,969,1920,1080,5-16-2023,0-50-20,3,1,large,classroom,misscaled,clipboard.png,1,zi,classroom,c4_zi.png,c,1,1597,1,3,clipboard.png,c4_zi.png,112966,504832,35,Man
425810,OSSe4,v1,1920,0.432685068326976,969,1920,1080,5-16-2023,0-50-20,3,2,large,kitchen,scaled,toaster.png,0,zo,laundromat,l4_zo.png,m,1,1719,2,2,toaster.png,l4_zo.png,112966,504832,35,Man
425810,OSSe4,v1,1920,-0.32102440553291656,969,1920,1080,5-16-2023,0-50-20,3,3,small,bathroom,misscaled,nailclipper.png,0,zo,kitchen,k1_zo.png,m,1,1629,3,1,nailclipper.png,k1_zo.png,112966,504832,35,Man
425810,OSSe4,v1,1920,0.0809539805256928,969,1920,1080,5-16-2023,0-50-20,3,4,small,laundromat,misscaled,tidepod.png,0,zo,bathroom,b0_zo.png,c,0,1677,4,2,tidepod.png,b0_zo.png,112966,504832,35,Man
425810,OSSe4,v1,1920,0.22332132558811693,969,1920,1080,5-16-2023,0-50-20,3,5,small,laundromat,misscaled,coins.png,1,zo,laundromat,l3_zo.png,m,0,1694,5,1,coins.png,l3_zo.png,112966,504832,35,Man
425810,OSSe4,v1,1920,0.8346634543855853,969,1920,1080,5-16-2023,0-50-20,3,6,large,classroom,misscaled,notebook.png,0,zi,bathroom,b2_zi.png,m,1,1767,6,4,notebook.png,b2_zi.png,112966,504832,35,Man
425810,OSSe4,v1,1920,-0.3712717037902427,969,1920,1080,5-16-2023,0-50-20,3,7,small,bathroom,scaled,floss.png,1,zi,bathroom,b0_zi.png,c,1,1623,7,2,floss.png,b0_zi.png,112966,504832,35,Man
425810,OSSe4,v1,1920,2.5095733962964575,969,1920,1080,5-16-2023,0-50-20,3,8,small,kitchen,scaled,spoon.png,1,zi,kitchen,k0_zi.png,c,1,1967,8,1,spoon.png,k0_zi.png,112966,504832,35,Man
425810,OSSe4,v1,1920,-1.6442032596425058,969,1920,1080,5-16-2023,0-50-20,3,10,large,kitchen,scaled,kettle.png,1,zo,kitchen,k5_zo.png,c,1,1471,10,2,kettle.png,k5_zo.png,112966,504832,35,Man
425810,OSSe4,v1,1920,-0.3377735049520253,969,1920,1080,5-16-2023,0-50-20,3,12,large,kitchen,scaled,pot.png,1,zo,kitchen,k4_zo.png,c,1,1627,12,3,pot.png,k4_zo.png,112966,504832,35,Man
425810,OSSe4,v1,1920,-0.5136390488526669,969,1920,1080,5-16-2023,0-50-20,3,13,large,bathroom,misscaled,loofah.png,0,zi,kitchen,k3_zi.png,m,1,1606,13,2,loofah.png,k3_zi.png,112966,504832,35,Man
425810,OSSe4,v1,1920,-0.3042753061138078,969,1920,1080,5-16-2023,0-50-20,3,14,large,laundromat,scaled,detergent.png,0,zo,classroom,c5_zo.png,m,1,1631,14,3,detergent.png,c5_zo.png,112966,504832,35,Man
853028,OSSe4,v1,1319,1.5714366950813772,966,1920,1080,5-15-2023,10-27-10,1,0,small,bathroom,misscaled,nailclipper.png,1,zo,bathroom,b4_zo.png,m,0,1222,0,5,nailclipper.png,b4_zo.png,148672,278917,41,Man
853028,OSSe4,v1,1319,-0.2420217035808629,966,1920,1080,5-15-2023,10-27-10,1,1,small,kitchen,misscaled,sponge.png,1,zo,kitchen,k4_zo.png,c,1,956,1,4,sponge.png,k4_zo.png,148672,278917,41,Man
853028,OSSe4,v1,1319,-0.14657652470390287,966,1920,1080,5-15-2023,10-27-10,1,2,large,classroom,scaled,clipboard.png,1,zo,classroom,c0_zo.png,c,1,970,2,3,clipboard.png,c0_zo.png,148672,278917,41,Man
853028,OSSe4,v1,1319,0.6647074957502572,966,1920,1080,5-15-2023,10-27-10,1,3,small,bathroom,scaled,floss.png,1,zi,bathroom,b0_zi.png,c,1,1089,3,3,floss.png,b0_zi.png,148672,278917,41,Man
853028,OSSe4,v1,1319,-1.3191887223351257,966,1920,1080,5-15-2023,10-27-10,1,4,large,bathroom,scaled,hairdryer.png,1,zo,bathroom,b1_zo.png,c,1,798,4,4,hairdryer.png,b1_zo.png,148672,278917,41,Man
853028,OSSe4,v1,1319,1.0873932879196515,966,1920,1080,5-15-2023,10-27-10,1,5,large,kitchen,misscaled,kettle.png,0,zi,classroom,c1_zi.png,m,1,1151,5,1,kettle.png,c1_zi.png,148672,278917,41,Man
853028,OSSe4,v1,1319,-0.41927703578093145,966,1920,1080,5-15-2023,10-27-10,1,6,large,kitchen,misscaled,toaster.png,0,zi,bathroom,b1_zi.png,m,1,930,6,1,toaster.png,b1_zi.png,148672,278917,41,Man
853028,OSSe4,v1,1319,0.06476637138079429,966,1920,1080,5-15-2023,10-27-10,1,7,small,bathroom,misscaled,lipstick.png,0,zo,kitchen,k2_zo.png,m,1,1001,7,5,lipstick.png,k2_zo.png,148672,278917,41,Man
853028,OSSe4,v1,1319,-0.7942402385118458,966,1920,1080,5-15-2023,10-27-10,1,8,small,kitchen,scaled,spoon.png,1,zi,kitchen,k1_zi.png,c,1,875,8,3,spoon.png,k1_zi.png,148672,278917,41,Man
853028,OSSe4,v1,1319,2.1645603066739145,966,1920,1080,5-15-2023,10-27-10,1,9,large,classroom,scaled,computer.png,0,zo,kitchen,k5_zo.png,m,1,1309,9,3,computer.png,k5_zo.png,148672,278917,41,Man
853028,OSSe4,v1,1319,0.010226269165388572,966,1920,1080,5-15-2023,10-27-10,1,10,large,bathroom,misscaled,tissuebox.png,1,zi,bathroom,b5_zi.png,c,1,993,10,1,tissuebox.png,b5_zi.png,148672,278917,41,Man
853028,OSSe4,v1,1319,-0.4397295741117086,966,1920,1080,5-15-2023,10-27-10,1,11,small,kitchen,misscaled,saltshaker.png,0,zo,bathroom,b5_zo.png,m,1,927,11,5,saltshaker.png,b5_zo.png,148672,278917,41,Man
853028,OSSe4,v1,1319,0.3988244974501543,966,1920,1080,5-15-2023,10-27-10,1,12,large,bathroom,misscaled,loofah.png,1,zi,bathroom,b3_zi.png,c,1,1050,12,3,loofah.png,b3_zi.png,148672,278917,41,Man
853028,OSSe4,v1,1319,-1.1351158773581316,966,1920,1080,5-15-2023,10-27-10,1,13,small,laundromat,scaled,coins.png,0,zi,kitchen,k2_zi.png,m,1,825,13,5,coins.png,k2_zi.png,148672,278917,41,Man
853028,OSSe4,v1,1319,-0.07158388415772,966,1920,1080,5-15-2023,10-27-10,1,14,small,classroom,scaled,paperclip.png,0,zi,laundromat,l0_zi.png,m,1,981,14,5,paperclip.png,l0_zi.png,148672,278917,41,Man
853028,OSSe4,v1,1319,-1.3941813628813087,966,1920,1080,5-15-2023,10-27-10,1,15,large,laundromat,scaled,shorts.png,0,zo,classroom,c1_zo.png,m,1,787,15,4,shorts.png,c1_zo.png,148672,278917,41,Man
873192,OSSe4,v1,1280,0.014547986036076235,598,1280,800,5-16-2023,7-25-49,2,0,large,classroom,scaled,clipboard.png,1,zo,classroom,c3_zo.png,c,1,1131,0,4,clipboard.png,c3_zo.png,152016,276883,35,Man
873192,OSSe4,v1,1280,-0.7859460748758258,598,1280,800,5-16-2023,7-25-49,2,1,large,kitchen,scaled,pot.png,0,zo,laundromat,l2_zo.png,m,1,990,1,4,pot.png,l2_zo.png,152016,276883,35,Man
873192,OSSe4,v1,1280,0.75826941851451,598,1280,800,5-16-2023,7-25-49,2,2,small,laundromat,misscaled,tidepod.png,1,zo,laundromat,l0_zo.png,m,0,1262,2,4,tidepod.png,l0_zo.png,152016,276883,35,Man
873192,OSSe4,v1,1280,-0.3544740987814673,598,1280,800,5-16-2023,7-25-49,2,3,large,classroom,misscaled,notebook.png,0,zi,laundromat,l3_zi.png,m,1,1066,3,2,notebook.png,l3_zi.png,152016,276883,35,Man
873192,OSSe4,v1,1280,0.9115555152848743,598,1280,800,5-16-2023,7-25-49,2,4,small,classroom,scaled,paperclip.png,0,zi,bathroom,b5_zi.png,m,1,1289,4,5,paperclip.png,b5_zi.png,152016,276883,35,Man
873192,OSSe4,v1,1280,1.7404358904135104,598,1280,800,5-16-2023,7-25-49,2,5,small,bathroom,misscaled,nailclipper.png,0,zo,kitchen,k3_zo.png,m,1,1435,5,5,nailclipper.png,k3_zo.png,152016,276883,35,Man
873192,OSSe4,v1,1280,-0.9335549088028432,598,1280,800,5-16-2023,7-25-49,2,6,small,laundromat,scaled,socks.png,1,zi,laundromat,l5_zi.png,c,1,964,6,3,socks.png,l5_zi.png,152016,276883,35,Man
873192,OSSe4,v1,1280,-0.45098756711836324,598,1280,800,5-16-2023,7-25-49,2,7,small,bathroom,misscaled,lipstick.png,1,zo,bathroom,b5_zo.png,c,1,1049,7,4,lipstick.png,b5_zo.png,152016,276883,35,Man
873192,OSSe4,v1,1280,-0.6042736638887275,598,1280,800,5-16-2023,7-25-49,2,8,large,kitchen,misscaled,toaster.png,1,zi,kitchen,k0_zi.png,c,1,1022,8,2,toaster.png,k0_zi.png,152016,276883,35,Man
873192,OSSe4,v1,1280,-0.5929191382020339,598,1280,800,5-16-2023,7-25-49,2,9,large,bathroom,scaled,hairdryer.png,0,zo,kitchen,k2_zo.png,m,1,1024,9,3,hairdryer.png,k2_zo.png,152016,276883,35,Man
873192,OSSe4,v1,1280,-1.0130365886096988,598,1280,800,5-16-2023,7-25-49,2,10,large,kitchen,misscaled,kettle.png,1,zi,kitchen,k3_zi.png,c,1,950,10,2,kettle.png,k3_zi.png,152016,276883,35,Man
873192,OSSe4,v1,1280,-0.24660610475787764,598,1280,800,5-16-2023,7-25-49,2,11,small,classroom,scaled,eraser.png,0,zi,kitchen,k2_zi.png,m,1,1085,11,4,eraser.png,k2_zi.png,152016,276883,35,Man
873192,OSSe4,v1,1280,1.8766901986538342,598,1280,800,5-16-2023,7-25-49,2,12,large,bathroom,misscaled,tissuebox.png,0,zi,kitchen,k5_zi.png,c,0,1459,12,1,tissuebox.png,k5_zi.png,152016,276883,35,Man
873192,OSSe4,v1,1280,-0.042224642397392,598,1280,800,5-16-2023,7-25-49,2,13,small,kitchen,misscaled,sponge.png,0,zo,classroom,c2_zo.png,m,1,1121,13,3,sponge.png,c2_zo.png,152016,276883,35,Man
873192,OSSe4,v1,1280,-1.4388313018607104,598,1280,800,5-16-2023,7-25-49,2,14,large,bathroom,scaled,loofah.png,1,zo,bathroom,b3_zo.png,c,1,875,14,3,loofah.png,b3_zo.png,152016,276883,35,Man
873192,OSSe4,v1,1280,1.1613550803921344,598,1280,800,5-16-2023,7-25-49,2,15,small,bathroom,scaled,floss.png,1,zi,bathroom,b0_zi.png,c,1,1333,15,3,floss.png,b0_zi.png,152016,276883,35,Man
771393,OSSe4,v1,1277,2.8665594210097636,1225,1920,1080,5-15-2023,9-46-51,3,0,small,classroom,scaled,paperclip.png,0,zi,bathroom,b0_zi.png,m,1,1845,0,5,paperclip.png,b0_zi.png,103811,259635,30,Man
771393,OSSe4,v1,1277,0.31982537273964756,1225,1920,1080,5-15-2023,9-46-51,3,1,small,bathroom,scaled,floss.png,1,zi,bathroom,b4_zi.png,c,1,1094,1,1,floss.png,b4_zi.png,103811,259635,30,Man
771393,OSSe4,v1,1277,0.5945064085717107,1225,1920,1080,5-15-2023,9-46-51,3,2,large,bathroom,misscaled,loofah.png,0,zi,kitchen,k5_zi.png,m,1,1175,2,3,loofah.png,k5_zi.png,103811,259635,30,Man
771393,OSSe4,v1,1277,-0.5516934693447996,1225,1920,1080,5-15-2023,9-46-51,3,3,small,kitchen,misscaled,saltshaker.png,0,zo,bathroom,b2_zo.png,m,1,837,3,4,saltshaker.png,b2_zo.png,103811,259635,30,Man
771393,OSSe4,v1,1277,-0.2871858052102203,1225,1920,1080,5-15-2023,9-46-51,3,4,small,laundromat,misscaled,coins.png,1,zo,laundromat,l3_zo.png,c,1,915,4,5,coins.png,l3_zo.png,103811,259635,30,Man
771393,OSSe4,v1,1277,-0.6975117970087343,1225,1920,1080,5-15-2023,9-46-51,3,5,large,kitchen,misscaled,pot.png,1,zi,kitchen,k4_zi.png,c,1,794,5,2,pot.png,k4_zi.png,103811,259635,30,Man
771393,OSSe4,v1,1277,-0.9145437265550558,1225,1920,1080,5-15-2023,9-46-51,3,6,large,laundromat,scaled,shirt.png,1,zo,laundromat,l5_zo.png,c,1,730,6,3,shirt.png,l5_zo.png,103811,259635,30,Man
771393,OSSe4,v1,1277,-0.009113645478995921,1225,1920,1080,5-15-2023,9-46-51,3,7,large,kitchen,scaled,toaster.png,0,zo,bathroom,b0_zo.png,m,1,997,7,4,toaster.png,b0_zo.png,103811,259635,30,Man
771393,OSSe4,v1,1277,-0.2600568140169301,1225,1920,1080,5-15-2023,9-46-51,3,8,large,laundromat,scaled,shorts.png,1,zo,laundromat,l4_zo.png,c,1,923,8,4,shorts.png,l4_zo.png,103811,259635,30,Man
771393,OSSe4,v1,1277,-0.6636005580171216,1225,1920,1080,5-15-2023,9-46-51,3,9,large,laundromat,scaled,detergent.png,0,zo,classroom,c2_zo.png,m,1,804,9,4,detergent.png,c2_zo.png,103811,259635,30,Man
771393,OSSe4,v1,1277,-0.7280319121011858,1225,1920,1080,5-15-2023,9-46-51,3,10,small,kitchen,scaled,sponge.png,1,zi,kitchen,k3_zi.png,c,1,785,10,4,sponge.png,k3_zi.png,103811,259635,30,Man
771393,OSSe4,v1,1277,-1.0569709303198294,1225,1920,1080,5-15-2023,9-46-51,3,11,small,kitchen,misscaled,spoon.png,0,zo,bathroom,b1_zo.png,m,1,688,11,3,spoon.png,b1_zo.png,103811,259635,30,Man
771393,OSSe4,v1,1277,-0.6262981951263475,1225,1920,1080,5-15-2023,9-46-51,3,12,small,bathroom,misscaled,nailclipper.png,1,zo,bathroom,b4_zo.png,m,0,815,12,5,nailclipper.png,b4_zo.png,103811,259635,30,Man
771393,OSSe4,v1,1277,1.0489170110593213,1225,1920,1080,5-15-2023,9-46-51,3,13,large,classroom,misscaled,clipboard.png,1,zi,classroom,c3_zi.png,c,1,1309,13,1,clipboard.png,c3_zi.png,103811,259635,30,Man
771393,OSSe4,v1,1277,-0.01928701717647974,1225,1920,1080,5-15-2023,9-46-51,3,14,large,kitchen,misscaled,kettle.png,0,zi,classroom,c4_zi.png,m,1,994,14,1,kettle.png,c4_zi.png,103811,259635,30,Man
771393,OSSe4,v1,1277,0.984485656975257,1225,1920,1080,5-15-2023,9-46-51,3,15,small,classroom,scaled,binderclip.png,0,zi,laundromat,l0_zi.png,m,1,1290,15,3,binderclip.png,l0_zi.png,103811,259635,30,Man
358920,OSSe4,v1,1701,0.2504160645141552,919,1920,1080,5-16-2023,11-1-23,1,0,large,bathroom,scaled,tissuebox.png,1,zo,bathroom,b1_zo.png,c,1,1503,0,3,tissuebox.png,b1_zo.png,154220,262868,69,Woman
358920,OSSe4,v1,1701,1.1570318893245275,919,1920,1080,5-16-2023,11-1-23,1,1,small,laundromat,scaled,tidepod.png,0,zi,kitchen,k5_zi.png,c,0,1751,1,5,tidepod.png,k5_zi.png,154220,262868,69,Woman
358920,OSSe4,v1,1701,0.07859774287670566,919,1920,1080,5-16-2023,11-1-23,1,2,large,kitchen,misscaled,toaster.png,1,zi,kitchen,k1_zi.png,c,1,1456,2,2,toaster.png,k1_zi.png,154220,262868,69,Woman
358920,OSSe4,v1,1701,-1.0510163291652501,919,1920,1080,5-16-2023,11-1-23,1,4,large,laundromat,misscaled,shirt.png,0,zi,kitchen,k0_zi.png,m,1,1147,4,1,shirt.png,k0_zi.png,154220,262868,69,Woman
358920,OSSe4,v1,1701,-0.5684627449919875,919,1920,1080,5-16-2023,11-1-23,1,5,small,laundromat,scaled,coins.png,1,zi,laundromat,l3_zi.png,c,1,1279,5,4,coins.png,l3_zi.png,154220,262868,69,Woman
358920,OSSe4,v1,1701,1.076606291962317,919,1920,1080,5-16-2023,11-1-23,1,6,small,bathroom,scaled,nailclipper.png,1,zi,bathroom,b2_zi.png,c,1,1729,6,3,nailclipper.png,b2_zi.png,154220,262868,69,Woman
358920,OSSe4,v1,1701,1.288637412280872,919,1920,1080,5-16-2023,11-1-23,1,7,small,bathroom,misscaled,floss.png,1,zo,bathroom,b3_zo.png,c,1,1787,7,5,floss.png,b3_zo.png,154220,262868,69,Woman
358920,OSSe4,v1,1701,-0.5830855808760257,919,1920,1080,5-16-2023,11-1-23,1,8,large,bathroom,scaled,loofah.png,1,zo,bathroom,b4_zo.png,c,1,1275,8,5,loofah.png,b4_zo.png,154220,262868,69,Woman
358920,OSSe4,v1,1701,-0.3381530798183848,919,1920,1080,5-16-2023,11-1-23,1,9,small,kitchen,scaled,saltshaker.png,0,zi,laundromat,l2_zi.png,m,1,1342,9,3,saltshaker.png,l2_zi.png,154220,262868,69,Woman
358920,OSSe4,v1,1701,-1.522602786425484,919,1920,1080,5-16-2023,11-1-23,1,10,small,kitchen,misscaled,spoon.png,1,zo,kitchen,k5_zo.png,c,1,1018,10,5,spoon.png,k5_zo.png,154220,262868,69,Woman
358920,OSSe4,v1,1701,-0.8609194626727527,919,1920,1080,5-16-2023,11-1-23,1,11,small,kitchen,misscaled,sponge.png,0,zo,bathroom,b5_zo.png,c,0,1199,11,5,sponge.png,b5_zo.png,154220,262868,69,Woman
358920,OSSe4,v1,1701,0.5574956180789588,919,1920,1080,5-16-2023,11-1-23,1,13,large,classroom,scaled,computer.png,0,zo,laundromat,l2_zo.png,m,1,1587,13,3,computer.png,l2_zo.png,154220,262868,69,Woman
358920,OSSe4,v1,1701,-1.0437049112232308,919,1920,1080,5-16-2023,11-1-23,1,14,small,bathroom,misscaled,lipstick.png,0,zo,classroom,c2_zo.png,m,1,1149,14,5,lipstick.png,c2_zo.png,154220,262868,69,Woman
358920,OSSe4,v1,1701,1.5591598761355796,919,1920,1080,5-16-2023,11-1-23,1,15,large,classroom,misscaled,notebook.png,1,zi,classroom,c4_zi.png,c,1,1861,15,1,notebook.png,c4_zi.png,154220,262868,69,Woman
168762,OSSe4,v1,1666,-0.9359538307164723,813,1680,1050,5-16-2023,10-26-3,1,0,large,kitchen,scaled,pot.png,1,zo,kitchen,k4_zo.png,m,0,948,0,4,pot.png,k4_zo.png,206573,286536,52,Woman
168762,OSSe4,v1,1666,0.15368205204938856,813,1680,1050,5-16-2023,10-26-3,1,1,large,kitchen,scaled,kettle.png,0,zo,laundromat,l4_zo.png,m,1,1061,1,5,kettle.png,l4_zo.png,206573,286536,52,Woman
168762,OSSe4,v1,1666,0.38510914219435016,813,1680,1050,5-16-2023,10-26-3,1,2,small,classroom,misscaled,paperclip.png,0,zo,laundromat,l3_zo.png,m,1,1085,2,5,paperclip.png,l3_zo.png,206573,286536,52,Woman
168762,OSSe4,v1,1666,0.38510914219435016,813,1680,1050,5-16-2023,10-26-3,1,3,small,bathroom,misscaled,floss.png,1,zo,bathroom,b0_zo.png,c,1,1085,3,3,floss.png,b0_zo.png,206573,286536,52,Woman
168762,OSSe4,v1,1666,-0.7141695359942175,813,1680,1050,5-16-2023,10-26-3,1,4,large,kitchen,scaled,toaster.png,0,zo,laundromat,l5_zo.png,m,1,971,4,4,toaster.png,l5_zo.png,206573,286536,52,Woman
168762,OSSe4,v1,1666,0.047611302399614495,813,1680,1050,5-16-2023,10-26-3,1,5,large,classroom,misscaled,clipboard.png,1,zi,classroom,c0_zi.png,c,1,1050,5,1,clipboard.png,c0_zi.png,206573,286536,52,Woman
168762,OSSe4,v1,1666,2.3233110221584035,813,1680,1050,5-16-2023,10-26-3,1,6,large,laundromat,misscaled,shorts.png,0,zi,bathroom,b4_zi.png,m,1,1286,6,1,shorts.png,b4_zi.png,206573,286536,52,Woman
168762,OSSe4,v1,1666,0.8479633224842734,813,1680,1050,5-16-2023,10-26-3,1,7,large,laundromat,misscaled,shirt.png,0,zi,kitchen,k5_zi.png,m,1,1133,7,1,shirt.png,k5_zi.png,206573,286536,52,Woman
168762,OSSe4,v1,1666,-0.06810224267286631,813,1680,1050,5-16-2023,10-26-3,1,8,small,kitchen,scaled,saltshaker.png,1,zi,kitchen,k1_zi.png,c,1,1038,8,5,saltshaker.png,k1_zi.png,206573,286536,52,Woman
168762,OSSe4,v1,1666,0.46225150557600403,813,1680,1050,5-16-2023,10-26-3,1,9,small,bathroom,scaled,nailclipper.png,0,zi,laundromat,l3_zi.png,m,1,1093,9,5,nailclipper.png,l3_zi.png,206573,286536,52,Woman
168762,OSSe4,v1,1666,0.7033213911436724,813,1680,1050,5-16-2023,10-26-3,1,10,small,laundromat,misscaled,tidepod.png,0,zo,classroom,c1_zo.png,m,1,1118,10,5,tidepod.png,c1_zo.png,206573,286536,52,Woman
168762,OSSe4,v1,1666,0.23082441543104243,813,1680,1050,5-16-2023,10-26-3,1,11,large,bathroom,scaled,hairdryer.png,1,zo,bathroom,b4_zo.png,c,1,1069,11,4,hairdryer.png,b4_zo.png,206573,286536,52,Woman
168762,OSSe4,v1,1666,-0.8588114673348185,813,1680,1050,5-16-2023,10-26-3,1,12,small,classroom,scaled,eraser.png,0,zi,bathroom,b3_zi.png,m,1,956,12,5,eraser.png,b3_zi.png,206573,286536,52,Woman
168762,OSSe4,v1,1666,-0.550242013808203,813,1680,1050,5-16-2023,10-26-3,1,13,small,bathroom,scaled,lipstick.png,1,zi,bathroom,b1_zi.png,c,1,988,13,3,lipstick.png,b1_zi.png,206573,286536,52,Woman
168762,OSSe4,v1,1666,-0.0970306289409865,813,1680,1050,5-16-2023,10-26-3,1,14,small,laundromat,misscaled,coins.png,1,zo,laundromat,l1_zo.png,c,1,1035,14,5,coins.png,l1_zo.png,206573,286536,52,Woman
168762,OSSe4,v1,1666,-2.314873576163535,813,1680,1050,5-16-2023,10-26-3,1,15,large,laundromat,misscaled,detergent.png,1,zi,laundromat,l2_zi.png,c,1,805,15,2,detergent.png,l2_zi.png,206573,286536,52,Woman
516130,OSSe4,v1,1920,-0.5963357917390856,937,1920,1080,5-16-2023,10-42-29,2,0,large,kitchen,misscaled,pot.png,1,zi,kitchen,k4_zi.png,c,1,753,0,1,pot.png,k4_zi.png,109595,209342,29,Prefer not to answer
516130,OSSe4,v1,1920,0.5229745248567167,937,1920,1080,5-16-2023,10-42-29,2,1,small,kitchen,scaled,saltshaker.png,0,zi,classroom,c3_zi.png,c,0,990,1,3,saltshaker.png,c3_zi.png,109595,209342,29,Prefer not to answer
516130,OSSe4,v1,1920,-0.5538303366784855,937,1920,1080,5-16-2023,10-42-29,2,2,small,classroom,misscaled,eraser.png,0,zo,bathroom,b3_zo.png,c,0,762,2,4,eraser.png,b3_zo.png,109595,209342,29,Prefer not to answer
516130,OSSe4,v1,1920,0.4190723013752498,937,1920,1080,5-16-2023,10-42-29,2,3,large,kitchen,scaled,kettle.png,0,zo,laundromat,l4_zo.png,m,1,968,3,4,kettle.png,l4_zo.png,109595,209342,29,Prefer not to answer
516130,OSSe4,v1,1920,0.4190723013752498,937,1920,1080,5-16-2023,10-42-29,2,4,small,classroom,misscaled,binderclip.png,1,zo,classroom,c3_zo.png,c,1,968,4,3,binderclip.png,c3_zo.png,109595,209342,29,Prefer not to answer
516130,OSSe4,v1,1920,-0.3365802330354184,937,1920,1080,5-16-2023,10-42-29,2,5,large,bathroom,scaled,hairdryer.png,0,zo,classroom,c5_zo.png,m,1,808,5,3,hairdryer.png,c5_zo.png,109595,209342,29,Prefer not to answer
516130,OSSe4,v1,1920,-0.5868901350589523,937,1920,1080,5-16-2023,10-42-29,2,6,small,classroom,misscaled,paperclip.png,0,zo,bathroom,b0_zo.png,m,1,755,6,5,paperclip.png,b0_zo.png,109595,209342,29,Prefer not to answer
516130,OSSe4,v1,1920,-0.6671782168400857,937,1920,1080,5-16-2023,10-42-29,2,7,large,classroom,scaled,notebook.png,1,zo,classroom,c2_zo.png,c,1,738,7,3,notebook.png,c2_zo.png,109595,209342,29,Prefer not to answer
516130,OSSe4,v1,1920,1.0377628139239845,937,1920,1080,5-16-2023,10-42-29,2,8,large,bathroom,misscaled,loofah.png,0,zi,laundromat,l0_zi.png,m,1,1099,8,3,loofah.png,l0_zi.png,109595,209342,29,Prefer not to answer
516130,OSSe4,v1,1920,-0.26101497959435155,937,1920,1080,5-16-2023,10-42-29,2,9,small,laundromat,scaled,coins.png,1,zi,laundromat,l4_zi.png,c,1,824,9,5,coins.png,l4_zi.png,109595,209342,29,Prefer not to answer
516130,OSSe4,v1,1920,-0.5207705382980188,937,1920,1080,5-16-2023,10-42-29,2,10,large,bathroom,misscaled,tissuebox.png,0,zi,laundromat,l1_zi.png,m,1,769,10,2,tissuebox.png,l1_zi.png,109595,209342,29,Prefer not to answer
516130,OSSe4,v1,1920,-0.5821673067188856,937,1920,1080,5-16-2023,10-42-29,2,11,large,laundromat,misscaled,shorts.png,1,zi,laundromat,l3_zi.png,c,1,756,11,1,shorts.png,l3_zi.png,109595,209342,29,Prefer not to answer
516130,OSSe4,v1,1920,-0.4829879115774854,937,1920,1080,5-16-2023,10-42-29,2,12,large,kitchen,scaled,toaster.png,1,zo,kitchen,k0_zo.png,c,1,777,12,3,toaster.png,k0_zo.png,109595,209342,29,Prefer not to answer
516130,OSSe4,v1,1920,-0.8324772087424194,937,1920,1080,5-16-2023,10-42-29,2,13,small,bathroom,scaled,nailclipper.png,1,zi,bathroom,b3_zi.png,m,0,703,13,3,nailclipper.png,b3_zi.png,109595,209342,29,Prefer not to answer
516130,OSSe4,v1,1920,3.0213507167519884,937,1920,1080,5-16-2023,10-42-29,2,15,small,bathroom,scaled,lipstick.png,0,zi,laundromat,l5_zi.png,m,1,1519,15,4,lipstick.png,l5_zi.png,109595,209342,29,Prefer not to answer
668428,OSSe4,v1,1920,0.8614315720122004,937,1920,1080,5-15-2023,10-20-6,1,0,large,laundromat,misscaled,detergent.png,1,zi,laundromat,l2_zi.png,c,1,1206,0,2,detergent.png,l2_zi.png,134017,211184,34,None of these describe me
668428,OSSe4,v1,1920,0.03538022527907235,937,1920,1080,5-15-2023,10-20-6,1,1,small,classroom,misscaled,paperclip.png,0,zo,laundromat,l5_zo.png,c,0,1027,1,5,paperclip.png,l5_zo.png,134017,211184,34,None of these describe me
668428,OSSe4,v1,1920,0.5522391684863927,937,1920,1080,5-15-2023,10-20-6,1,2,small,bathroom,scaled,lipstick.png,0,zi,kitchen,k2_zi.png,m,1,1139,2,3,lipstick.png,k2_zi.png,134017,211184,34,None of these describe me
668428,OSSe4,v1,1920,-0.26458255426089033,937,1920,1080,5-15-2023,10-20-6,1,3,large,classroom,misscaled,notebook.png,0,zi,laundromat,l4_zi.png,m,1,962,3,2,notebook.png,l4_zi.png,134017,211184,34,None of these describe me
668428,OSSe4,v1,1920,0.243046764960585,937,1920,1080,5-15-2023,10-20-6,1,4,large,kitchen,scaled,toaster.png,0,zo,classroom,c2_zo.png,m,1,1072,4,4,toaster.png,c2_zo.png,134017,211184,34,None of these describe me
668428,OSSe4,v1,1920,0.8152834520829754,937,1920,1080,5-15-2023,10-20-6,1,5,large,bathroom,misscaled,hairdryer.png,0,zi,laundromat,l0_zi.png,c,0,1196,5,2,hairdryer.png,l0_zi.png,134017,211184,34,None of these describe me
668428,OSSe4,v1,1920,-0.1861307503812078,937,1920,1080,5-15-2023,10-20-6,1,7,small,classroom,misscaled,binderclip.png,1,zo,classroom,c1_zo.png,c,1,979,7,5,binderclip.png,c1_zo.png,134017,211184,34,None of these describe me
668428,OSSe4,v1,1920,-0.9106562332700407,937,1920,1080,5-15-2023,10-20-6,1,8,large,laundromat,scaled,shorts.png,1,zo,laundromat,l1_zo.png,c,1,822,8,4,shorts.png,l1_zo.png,134017,211184,34,None of these describe me
668428,OSSe4,v1,1920,2.425852837612929,937,1920,1080,5-15-2023,10-20-6,1,9,large,laundromat,scaled,shirt.png,0,zo,bathroom,b1_zo.png,m,1,1545,9,3,shirt.png,b1_zo.png,134017,211184,34,None of these describe me
668428,OSSe4,v1,1920,0.13229127713044492,937,1920,1080,5-15-2023,10-20-6,1,10,small,laundromat,scaled,coins.png,1,zi,laundromat,l3_zi.png,c,1,1048,10,5,coins.png,l3_zi.png,134017,211184,34,None of these describe me
668428,OSSe4,v1,1920,-0.6476119496734581,937,1920,1080,5-15-2023,10-20-6,1,11,large,classroom,misscaled,computer.png,1,zi,classroom,c1_zi.png,c,1,879,11,1,computer.png,c1_zi.png,134017,211184,34,None of these describe me
668428,OSSe4,v1,1920,0.5891576644297727,937,1920,1080,5-15-2023,10-20-6,1,12,small,classroom,misscaled,eraser.png,0,zo,kitchen,k1_zo.png,m,1,1147,12,5,eraser.png,k1_zo.png,134017,211184,34,None of these describe me
668428,OSSe4,v1,1920,-0.8921969852983508,937,1920,1080,5-15-2023,10-20-6,1,13,small,laundromat,scaled,tidepod.png,1,zi,laundromat,l5_zi.png,c,1,826,13,5,tidepod.png,l5_zi.png,134017,211184,34,None of these describe me
668428,OSSe4,v1,1920,-1.5151966043428886,937,1920,1080,5-15-2023,10-20-6,1,14,small,laundromat,misscaled,socks.png,1,zo,laundromat,l0_zo.png,c,1,691,14,3,socks.png,l0_zo.png,134017,211184,34,None of these describe me
668428,OSSe4,v1,1920,-1.2383078847675386,937,1920,1080,5-15-2023,10-20-6,1,15,large,kitchen,scaled,pot.png,1,zo,kitchen,k4_zo.png,c,1,751,15,3,pot.png,k4_zo.png,134017,211184,34,None of these describe me
886732,OSSe4,v1,1405,-0.37396362000329725,928,1920,1080,5-15-2023,10-47-35,2,0,small,classroom,misscaled,binderclip.png,1,zo,classroom,c4_zo.png,c,1,925,0,5,binderclip.png,c4_zo.png,151368,306645,58,Woman
886732,OSSe4,v1,1405,0.3343327515925758,928,1920,1080,5-15-2023,10-47-35,2,1,small,bathroom,scaled,lipstick.png,0,zi,kitchen,k1_zi.png,m,1,1030,1,4,lipstick.png,k1_zi.png,151368,306645,58,Woman
886732,OSSe4,v1,1405,0.5974142610424715,928,1920,1080,5-15-2023,10-47-35,2,2,large,kitchen,scaled,toaster.png,0,zo,classroom,c2_zo.png,m,1,1069,2,3,toaster.png,c2_zo.png,151368,306645,58,Woman
886732,OSSe4,v1,1405,-0.31325250243793673,928,1920,1080,5-15-2023,10-47-35,2,3,large,kitchen,misscaled,kettle.png,0,zi,classroom,c0_zi.png,m,1,934,3,1,kettle.png,c0_zi.png,151368,306645,58,Woman
886732,OSSe4,v1,1405,1.0021550448115417,928,1920,1080,5-15-2023,10-47-35,2,4,large,laundromat,scaled,shorts.png,1,zo,laundromat,l3_zo.png,c,1,1129,4,3,shorts.png,l3_zo.png,151368,306645,58,Woman
886732,OSSe4,v1,1405,2.0409897231521557,928,1920,1080,5-15-2023,10-47-35,2,5,large,bathroom,misscaled,hairdryer.png,0,zi,classroom,c3_zi.png,m,1,1283,5,1,hairdryer.png,c3_zi.png,151368,306645,58,Woman
886732,OSSe4,v1,1405,-0.49538585513401834,928,1920,1080,5-15-2023,10-47-35,2,6,small,classroom,scaled,eraser.png,0,zi,laundromat,l2_zi.png,m,1,907,6,4,eraser.png,l2_zi.png,151368,306645,58,Woman
886732,OSSe4,v1,1405,-0.05017099298804101,928,1920,1080,5-15-2023,10-47-35,2,7,small,classroom,scaled,paperclip.png,1,zi,classroom,c2_zi.png,c,1,973,7,3,paperclip.png,c2_zi.png,151368,306645,58,Woman
886732,OSSe4,v1,1405,-0.1850845875777311,928,1920,1080,5-15-2023,10-47-35,2,8,large,kitchen,scaled,pot.png,0,zo,bathroom,b4_zo.png,m,1,953,8,4,pot.png,b4_zo.png,151368,306645,58,Woman
886732,OSSe4,v1,1405,0.31409571240412226,928,1920,1080,5-15-2023,10-47-35,2,9,large,classroom,scaled,notebook.png,1,zo,classroom,c3_zo.png,c,1,1027,9,3,notebook.png,c3_zo.png,151368,306645,58,Woman
886732,OSSe4,v1,1405,1.3934044691216432,928,1920,1080,5-15-2023,10-47-35,2,10,small,bathroom,scaled,nailclipper.png,1,zi,bathroom,b0_zi.png,c,1,1187,10,3,nailclipper.png,b0_zi.png,151368,306645,58,Woman
886732,OSSe4,v1,1405,-1.4195439780733956,928,1920,1080,5-15-2023,10-47-35,2,11,small,bathroom,misscaled,floss.png,0,zo,laundromat,l2_zo.png,m,1,770,11,5,floss.png,l2_zo.png,151368,306645,58,Woman
886732,OSSe4,v1,1405,-1.0080575145748407,928,1920,1080,5-15-2023,10-47-35,2,12,small,kitchen,misscaled,saltshaker.png,1,zo,kitchen,k4_zo.png,c,1,831,12,5,saltshaker.png,k4_zo.png,151368,306645,58,Woman
886732,OSSe4,v1,1405,0.671616738066801,928,1920,1080,5-15-2023,10-47-35,2,13,small,laundromat,misscaled,tidepod.png,0,zo,bathroom,b1_zo.png,c,0,1080,13,4,tidepod.png,b1_zo.png,151368,306645,58,Woman
886732,OSSe4,v1,1405,-0.9608377564684492,928,1920,1080,5-15-2023,10-47-35,2,14,large,laundromat,misscaled,detergent.png,1,zi,laundromat,l1_zi.png,c,1,838,14,1,detergent.png,l1_zi.png,151368,306645,58,Woman
886732,OSSe4,v1,1405,-1.5477118929336011,928,1920,1080,5-15-2023,10-47-35,2,15,large,laundromat,misscaled,shirt.png,1,zi,laundromat,l3_zi.png,c,1,751,15,1,shirt.png,l3_zi.png,151368,306645,58,Woman
822842,OSSe4,v1,1920,2.2862630758692988,929,1920,1080,5-15-2023,11-1-36,1,0,large,kitchen,misscaled,kettle.png,1,zi,kitchen,k5_zi.png,c,1,1160,0,2,kettle.png,k5_zi.png,128964,222096,36,Man
822842,OSSe4,v1,1920,0.3128488093200154,929,1920,1080,5-15-2023,11-1-36,1,1,small,laundromat,scaled,tidepod.png,0,zi,kitchen,k2_zi.png,m,1,845,1,5,tidepod.png,k2_zi.png,128964,222096,36,Man
822842,OSSe4,v1,1920,0.5634410971357974,929,1920,1080,5-15-2023,11-1-36,1,2,small,bathroom,misscaled,floss.png,0,zo,classroom,c1_zo.png,m,1,885,2,5,floss.png,c1_zo.png,128964,222096,36,Man
822842,OSSe4,v1,1920,2.1609669319614078,929,1920,1080,5-15-2023,11-1-36,1,3,small,bathroom,misscaled,nailclipper.png,1,zo,bathroom,b3_zo.png,c,1,1140,3,5,nailclipper.png,b3_zo.png,128964,222096,36,Man
822842,OSSe4,v1,1920,0.08731575028581155,929,1920,1080,5-15-2023,11-1-36,1,4,large,laundromat,misscaled,shirt.png,0,zi,classroom,c3_zi.png,c,0,809,4,1,shirt.png,c3_zi.png,128964,222096,36,Man
822842,OSSe4,v1,1920,-0.8273461002417929,929,1920,1080,5-15-2023,11-1-36,1,5,small,kitchen,misscaled,spoon.png,1,zo,kitchen,k0_zo.png,c,1,663,5,5,spoon.png,k0_zo.png,128964,222096,36,Man
822842,OSSe4,v1,1920,-0.6957851491385073,929,1920,1080,5-15-2023,11-1-36,1,6,large,kitchen,misscaled,toaster.png,1,zi,kitchen,k4_zi.png,c,1,684,6,1,toaster.png,k4_zi.png,128964,222096,36,Man
822842,OSSe4,v1,1920,0.2689951589522535,929,1920,1080,5-15-2023,11-1-36,1,7,small,classroom,scaled,paperclip.png,1,zi,classroom,c5_zi.png,c,1,838,7,5,paperclip.png,c5_zi.png,128964,222096,36,Man
822842,OSSe4,v1,1920,0.1311694006535734,929,1920,1080,5-15-2023,11-1-36,1,8,large,laundromat,scaled,shorts.png,0,zo,classroom,c4_zo.png,m,1,816,8,1,shorts.png,c4_zo.png,128964,222096,36,Man
822842,OSSe4,v1,1920,-0.6644611131615346,929,1920,1080,5-15-2023,11-1-36,1,9,large,bathroom,scaled,hairdryer.png,1,zo,bathroom,b5_zo.png,c,1,689,9,4,hairdryer.png,b5_zo.png,128964,222096,36,Man
822842,OSSe4,v1,1920,-0.6707259203569291,929,1920,1080,5-15-2023,11-1-36,1,10,small,classroom,misscaled,binderclip.png,0,zo,laundromat,l2_zo.png,m,1,688,10,5,binderclip.png,l2_zo.png,128964,222096,36,Man
822842,OSSe4,v1,1920,-0.019185972035895813,929,1920,1080,5-15-2023,11-1-36,1,11,large,classroom,scaled,notebook.png,1,zo,classroom,c5_zo.png,c,1,792,11,5,notebook.png,c5_zo.png,128964,222096,36,Man
822842,OSSe4,v1,1920,-0.35748556058720155,929,1920,1080,5-15-2023,11-1-36,1,12,large,kitchen,misscaled,pot.png,0,zi,bathroom,b2_zi.png,m,1,738,12,1,pot.png,b2_zi.png,128964,222096,36,Man
822842,OSSe4,v1,1920,-0.532900162058249,929,1920,1080,5-15-2023,11-1-36,1,13,small,bathroom,scaled,lipstick.png,1,zi,bathroom,b3_zi.png,c,1,710,13,4,lipstick.png,b3_zi.png,128964,222096,36,Man
822842,OSSe4,v1,1920,-1.1468512672069149,929,1920,1080,5-15-2023,11-1-36,1,14,small,laundromat,scaled,coins.png,0,zi,kitchen,k0_zi.png,m,1,612,14,5,coins.png,k0_zi.png,128964,222096,36,Man
822842,OSSe4,v1,1920,-0.896258979391133,929,1920,1080,5-15-2023,11-1-36,1,15,large,classroom,scaled,clipboard.png,0,zo,bathroom,b1_zo.png,m,1,652,15,2,clipboard.png,b1_zo.png,128964,222096,36,Man
818056,OSSe4,v1,1366,0.8513211925973342,695,1366,768,5-16-2023,10-30-31,1,0,large,bathroom,misscaled,tissuebox.png,1,zi,bathroom,b5_zi.png,c,1,1170,0,2,tissuebox.png,b5_zi.png,125567,200497,51,Man
818056,OSSe4,v1,1366,2.1283029814933356,695,1366,768,5-16-2023,10-30-31,1,1,small,bathroom,scaled,floss.png,0,zi,laundromat,l1_zi.png,m,1,1431,1,5,floss.png,l1_zi.png,125567,200497,51,Man
818056,OSSe4,v1,1366,-0.592010714392399,695,1366,768,5-16-2023,10-30-31,1,2,large,kitchen,scaled,toaster.png,0,zo,classroom,c4_zo.png,m,1,875,2,4,toaster.png,c4_zo.png,125567,200497,51,Man
818056,OSSe4,v1,1366,0.8562138431295028,695,1366,768,5-16-2023,10-30-31,1,3,large,classroom,scaled,notebook.png,0,zo,laundromat,l2_zo.png,m,1,1171,3,4,notebook.png,l2_zo.png,125567,200497,51,Man
818056,OSSe4,v1,1366,0.308236983526621,695,1366,768,5-16-2023,10-30-31,1,4,small,laundromat,misscaled,socks.png,1,zo,laundromat,l1_zo.png,m,0,1059,4,4,socks.png,l1_zo.png,125567,200497,51,Man
818056,OSSe4,v1,1366,1.0176713106910662,695,1366,768,5-16-2023,10-30-31,1,5,small,bathroom,scaled,nailclipper.png,1,zi,bathroom,b4_zi.png,m,0,1204,5,3,nailclipper.png,b4_zi.png,125567,200497,51,Man
818056,OSSe4,v1,1366,-0.5186209564098703,695,1366,768,5-16-2023,10-30-31,1,6,large,kitchen,misscaled,pot.png,1,zi,kitchen,k4_zi.png,c,1,890,6,1,pot.png,k4_zi.png,125567,200497,51,Man
818056,OSSe4,v1,1366,-0.8121799883399855,695,1366,768,5-16-2023,10-30-31,1,7,small,kitchen,misscaled,saltshaker.png,0,zo,classroom,c0_zo.png,m,1,830,7,5,saltshaker.png,c0_zo.png,125567,200497,51,Man
818056,OSSe4,v1,1366,-0.33270023618746397,695,1366,768,5-16-2023,10-30-31,1,8,large,classroom,misscaled,computer.png,0,zi,kitchen,k3_zi.png,m,1,928,8,1,computer.png,k3_zi.png,125567,200497,51,Man
818056,OSSe4,v1,1366,1.3944054016680474,695,1366,768,5-16-2023,10-30-31,1,9,small,bathroom,misscaled,lipstick.png,1,zo,bathroom,b0_zo.png,c,1,1281,9,5,lipstick.png,b0_zo.png,125567,200497,51,Man
818056,OSSe4,v1,1366,-0.6556151713105908,695,1366,768,5-16-2023,10-30-31,1,10,large,classroom,misscaled,clipboard.png,0,zi,laundromat,l4_zi.png,m,1,862,10,2,clipboard.png,l4_zi.png,125567,200497,51,Man
818056,OSSe4,v1,1366,-1.2965523910246757,695,1366,768,5-16-2023,10-30-31,1,11,small,classroom,scaled,paperclip.png,0,zi,laundromat,l0_zi.png,m,1,731,11,5,paperclip.png,l0_zi.png,125567,200497,51,Man
818056,OSSe4,v1,1366,0.24952517714059796,695,1366,768,5-16-2023,10-30-31,1,12,large,laundromat,scaled,shirt.png,1,zo,laundromat,l4_zo.png,c,1,1047,12,3,shirt.png,l4_zo.png,125567,200497,51,Man
818056,OSSe4,v1,1366,-0.7681461335504682,695,1366,768,5-16-2023,10-30-31,1,13,small,classroom,misscaled,binderclip.png,0,zo,bathroom,b4_zo.png,m,1,839,13,5,binderclip.png,b4_zo.png,125567,200497,51,Man
818056,OSSe4,v1,1366,-0.6800784239714337,695,1366,768,5-16-2023,10-30-31,1,14,small,laundromat,scaled,tidepod.png,1,zi,laundromat,l3_zi.png,c,1,857,14,5,tidepod.png,l3_zi.png,125567,200497,51,Man
818056,OSSe4,v1,1366,-1.1497728750596181,695,1366,768,5-16-2023,10-30-31,1,15,large,laundromat,scaled,shorts.png,1,zo,laundromat,l3_zo.png,c,1,761,15,3,shorts.png,l3_zo.png,125567,200497,51,Man
378180,OSSe4,v1,2049,-1.581710816091694,937,1366,768,5-16-2023,20-17-55,1,1,large,classroom,misscaled,computer.png,0,zi,laundromat,l2_zi.png,c,0,399,1,5,computer.png,l2_zi.png,109351,169612,25,Man
378180,OSSe4,v1,2049,-1.1700111738268753,937,1366,768,5-16-2023,20-17-55,1,2,small,bathroom,scaled,nailclipper.png,1,zi,bathroom,b1_zi.png,m,0,574,2,4,nailclipper.png,b1_zi.png,109351,169612,25,Man
378180,OSSe4,v1,2049,-1.5887685242448053,937,1366,768,5-16-2023,20-17-55,1,3,large,kitchen,misscaled,kettle.png,1,zi,kitchen,k3_zi.png,c,1,396,3,3,kettle.png,k3_zi.png,109351,169612,25,Man
378180,OSSe4,v1,2049,0.9449487027221081,937,1366,768,5-16-2023,20-17-55,1,4,large,bathroom,scaled,loofah.png,1,zo,bathroom,b5_zo.png,c,1,1473,4,2,loofah.png,b5_zo.png,109351,169612,25,Man
378180,OSSe4,v1,2049,-0.24780397515368122,937,1366,768,5-16-2023,20-17-55,1,5,small,bathroom,scaled,lipstick.png,0,zi,laundromat,l3_zi.png,m,1,966,5,3,lipstick.png,l3_zi.png,109351,169612,25,Man
378180,OSSe4,v1,2049,0.6673455153664016,937,1366,768,5-16-2023,20-17-55,1,6,small,bathroom,scaled,floss.png,1,zi,bathroom,b5_zi.png,c,1,1355,6,4,floss.png,b5_zi.png,109351,169612,25,Man
378180,OSSe4,v1,2049,0.5285439216885485,937,1366,768,5-16-2023,20-17-55,1,7,large,classroom,misscaled,notebook.png,1,zi,classroom,c0_zi.png,m,0,1296,7,5,notebook.png,c0_zi.png,109351,169612,25,Man
378180,OSSe4,v1,2049,0.1521328201892856,937,1366,768,5-16-2023,20-17-55,1,8,small,classroom,scaled,eraser.png,0,zi,kitchen,k4_zi.png,m,1,1136,8,4,eraser.png,k4_zi.png,109351,169612,25,Man
378180,OSSe4,v1,2049,-0.2548616833067924,937,1366,768,5-16-2023,20-17-55,1,9,small,kitchen,misscaled,sponge.png,1,zo,kitchen,k1_zo.png,c,1,963,9,3,sponge.png,k1_zo.png,109351,169612,25,Man
378180,OSSe4,v1,2049,1.758937709714264,937,1366,768,5-16-2023,20-17-55,1,10,small,laundromat,misscaled,coins.png,0,zo,classroom,c3_zo.png,m,1,1819,10,4,coins.png,c3_zo.png,109351,169612,25,Man
378180,OSSe4,v1,2049,-0.46424035851575735,937,1366,768,5-16-2023,20-17-55,1,11,small,laundromat,misscaled,socks.png,0,zo,bathroom,b4_zo.png,m,1,874,11,3,socks.png,b4_zo.png,109351,169612,25,Man
378180,OSSe4,v1,2049,1.5048602162022615,937,1366,768,5-16-2023,20-17-55,1,12,small,classroom,misscaled,binderclip.png,1,zo,classroom,c0_zo.png,m,0,1711,12,4,binderclip.png,c0_zo.png,109351,169612,25,Man
378180,OSSe4,v1,2049,0.24388302617973093,937,1366,768,5-16-2023,20-17-55,1,13,large,bathroom,scaled,hairdryer.png,0,zo,classroom,c2_zo.png,m,1,1175,13,3,hairdryer.png,c2_zo.png,109351,169612,25,Man
378180,OSSe4,v1,2049,-0.45012494220953503,937,1366,768,5-16-2023,20-17-55,1,14,large,laundromat,misscaled,detergent.png,0,zi,kitchen,k1_zi.png,m,1,880,14,4,detergent.png,k1_zi.png,109351,169612,25,Man
378180,OSSe4,v1,2049,-0.04313043871345703,937,1366,768,5-16-2023,20-17-55,1,15,large,bathroom,scaled,tissuebox.png,1,zo,bathroom,b0_zo.png,c,1,1053,15,4,tissuebox.png,b0_zo.png,109351,169612,25,Man
708548,OSSe4,v1,1536,-0.33590733175072934,722,1536,864,5-15-2023,8-4-36,1,0,large,bathroom,scaled,tissuebox.png,0,zo,classroom,c2_zo.png,c,0,924,0,4,tissuebox.png,c2_zo.png,292684,785217,48,Woman
708548,OSSe4,v1,1536,0.6193291429154072,722,1536,864,5-15-2023,8-4-36,1,1,large,laundromat,misscaled,detergent.png,0,zi,kitchen,k0_zi.png,c,0,1106,1,3,detergent.png,k0_zi.png,292684,785217,48,Woman
708548,OSSe4,v1,1536,0.5878378305637764,722,1536,864,5-15-2023,8-4-36,1,2,small,kitchen,scaled,sponge.png,1,zi,kitchen,k2_zi.png,c,1,1100,2,3,sponge.png,k2_zi.png,292684,785217,48,Woman
708548,OSSe4,v1,1536,-0.35165298792654476,722,1536,864,5-15-2023,8-4-36,1,3,small,laundromat,scaled,socks.png,0,zi,kitchen,k4_zi.png,m,1,921,3,2,socks.png,k4_zi.png,292684,785217,48,Woman
708548,OSSe4,v1,1536,2.2883686975518436,722,1536,864,5-15-2023,8-4-36,1,4,large,classroom,scaled,notebook.png,0,zo,laundromat,l2_zo.png,c,0,1424,4,3,notebook.png,l2_zo.png,292684,785217,48,Woman
708548,OSSe4,v1,1536,-0.20994208234420583,722,1536,864,5-15-2023,8-4-36,1,5,small,kitchen,scaled,spoon.png,1,zi,kitchen,k5_zi.png,c,1,948,5,2,spoon.png,k5_zi.png,292684,785217,48,Woman
708548,OSSe4,v1,1536,1.9629584699183245,722,1536,864,5-15-2023,8-4-36,1,6,small,laundromat,misscaled,tidepod.png,0,zo,bathroom,b1_zo.png,c,0,1362,6,5,tidepod.png,b1_zo.png,292684,785217,48,Woman
708548,OSSe4,v1,1536,0.5458494140949351,722,1536,864,5-15-2023,8-4-36,1,7,large,classroom,misscaled,computer.png,0,zi,kitchen,k1_zi.png,m,1,1092,7,1,computer.png,k1_zi.png,292684,785217,48,Woman
708548,OSSe4,v1,1536,-0.829271225259613,722,1536,864,5-15-2023,8-4-36,1,8,large,kitchen,misscaled,toaster.png,1,zi,kitchen,k3_zi.png,c,1,830,8,2,toaster.png,k3_zi.png,292684,785217,48,Woman
708548,OSSe4,v1,1536,0.11021959323070805,722,1536,864,5-15-2023,8-4-36,1,9,large,bathroom,misscaled,hairdryer.png,1,zi,bathroom,b5_zi.png,c,1,1009,9,3,hairdryer.png,b5_zi.png,292684,785217,48,Woman
708548,OSSe4,v1,1536,-0.7662886005563513,722,1536,864,5-15-2023,8-4-36,1,10,small,classroom,misscaled,binderclip.png,1,zo,classroom,c3_zo.png,c,1,842,10,5,binderclip.png,c3_zo.png,292684,785217,48,Woman
708548,OSSe4,v1,1536,-0.4146356126298065,722,1536,864,5-15-2023,8-4-36,1,11,small,classroom,scaled,eraser.png,0,zi,laundromat,l1_zi.png,m,1,909,11,5,eraser.png,l1_zi.png,292684,785217,48,Woman
708548,OSSe4,v1,1536,-0.719051632028905,722,1536,864,5-15-2023,8-4-36,1,12,small,classroom,misscaled,paperclip.png,1,zo,classroom,c5_zo.png,c,1,851,12,4,paperclip.png,c5_zo.png,292684,785217,48,Woman
708548,OSSe4,v1,1536,-0.23618484263723155,722,1536,864,5-15-2023,8-4-36,1,13,small,bathroom,misscaled,lipstick.png,0,zo,kitchen,k3_zo.png,m,1,943,13,5,lipstick.png,k3_zo.png,292684,785217,48,Woman
708548,OSSe4,v1,1536,-1.259652494065235,722,1536,864,5-15-2023,8-4-36,1,14,large,laundromat,scaled,shirt.png,1,zo,laundromat,l4_zo.png,c,1,748,14,3,shirt.png,l4_zo.png,292684,785217,48,Woman
708548,OSSe4,v1,1536,-0.9919763390763725,722,1536,864,5-15-2023,8-4-36,1,15,large,classroom,scaled,clipboard.png,1,zo,classroom,c4_zo.png,c,1,799,15,4,clipboard.png,c4_zo.png,292684,785217,48,Woman
792763,OSSe4,v1,1746,2.0720573622436786,875,1746,982,5-15-2023,10-47-48,2,0,small,kitchen,scaled,spoon.png,1,zi,kitchen,k4_zi.png,c,1,1890,0,2,spoon.png,k4_zi.png,187158,352641,43,Woman
792763,OSSe4,v1,1746,0.3214593664789258,875,1746,982,5-15-2023,10-47-48,2,1,large,laundromat,misscaled,detergent.png,0,zi,kitchen,k3_zi.png,m,1,1325,1,1,detergent.png,k3_zi.png,187158,352641,43,Woman
792763,OSSe4,v1,1746,1.2447836191123707,875,1746,982,5-15-2023,10-47-48,2,2,small,laundromat,misscaled,tidepod.png,0,zo,bathroom,b3_zo.png,m,1,1623,2,4,tidepod.png,b3_zo.png,187158,352641,43,Woman
792763,OSSe4,v1,1746,1.4151958133903555,875,1746,982,5-15-2023,10-47-48,2,3,large,bathroom,misscaled,loofah.png,1,zi,bathroom,b1_zi.png,m,0,1678,3,4,loofah.png,b1_zi.png,187158,352641,43,Woman
792763,OSSe4,v1,1746,-0.5337000084433251,875,1746,982,5-15-2023,10-47-48,2,4,small,classroom,scaled,binderclip.png,0,zi,bathroom,b2_zi.png,m,1,1049,4,5,binderclip.png,b2_zi.png,187158,352641,43,Woman
792763,OSSe4,v1,1746,-0.7970643086911198,875,1746,982,5-15-2023,10-47-48,2,5,large,classroom,misscaled,notebook.png,1,zi,classroom,c5_zi.png,c,1,964,5,1,notebook.png,c5_zi.png,187158,352641,43,Woman
792763,OSSe4,v1,1746,0.29357373468798287,875,1746,982,5-15-2023,10-47-48,2,6,large,kitchen,scaled,pot.png,0,zo,classroom,c4_zo.png,m,1,1316,6,1,pot.png,c4_zo.png,187158,352641,43,Woman
792763,OSSe4,v1,1746,1.4120974098580283,875,1746,982,5-15-2023,10-47-48,2,7,large,classroom,scaled,computer.png,1,zo,classroom,c1_zo.png,c,1,1677,7,3,computer.png,c1_zo.png,187158,352641,43,Woman
792763,OSSe4,v1,1746,-0.7103090097859639,875,1746,982,5-15-2023,10-47-48,2,8,small,kitchen,misscaled,sponge.png,1,zo,kitchen,k3_zo.png,c,1,992,8,5,sponge.png,k3_zo.png,187158,352641,43,Woman
792763,OSSe4,v1,1746,-0.8218515369497357,875,1746,982,5-15-2023,10-47-48,2,9,small,laundromat,scaled,socks.png,1,zi,laundromat,l4_zi.png,c,1,956,9,3,socks.png,l4_zi.png,187158,352641,43,Woman
792763,OSSe4,v1,1746,-0.5275032013786711,875,1746,982,5-15-2023,10-47-48,2,10,large,classroom,misscaled,clipboard.png,0,zi,kitchen,k1_zi.png,m,1,1051,10,2,clipboard.png,k1_zi.png,187158,352641,43,Woman
792763,OSSe4,v1,1746,-0.9364924676458346,875,1746,982,5-15-2023,10-47-48,2,11,small,kitchen,scaled,saltshaker.png,0,zi,laundromat,l5_zi.png,m,1,919,11,4,saltshaker.png,l5_zi.png,187158,352641,43,Woman
792763,OSSe4,v1,1746,-0.47792874486143916,875,1746,982,5-15-2023,10-47-48,2,12,small,laundromat,misscaled,coins.png,1,zo,laundromat,l2_zo.png,c,1,1067,12,5,coins.png,l2_zo.png,187158,352641,43,Woman
792763,OSSe4,v1,1746,-0.6607345532687319,875,1746,982,5-15-2023,10-47-48,2,13,small,classroom,misscaled,eraser.png,0,zo,kitchen,k5_zo.png,m,1,1008,13,5,eraser.png,k5_zo.png,187158,352641,43,Woman
792763,OSSe4,v1,1746,-0.31991016471276235,875,1746,982,5-15-2023,10-47-48,2,14,large,bathroom,scaled,hairdryer.png,0,zo,laundromat,l1_zo.png,m,1,1118,14,5,hairdryer.png,l1_zo.png,187158,352641,43,Woman
792763,OSSe4,v1,1746,-0.9736733100337585,875,1746,982,5-15-2023,10-47-48,2,15,large,laundromat,scaled,shorts.png,1,zo,laundromat,l3_zo.png,c,1,907,15,4,shorts.png,l3_zo.png,187158,352641,43,Woman
799612,OSSe4,v1,1366,0.12055897017055119,649,1366,768,5-16-2023,11-34-18,1,2,small,kitchen,misscaled,saltshaker.png,1,zo,kitchen,k2_zo.png,c,1,1241,2,4,saltshaker.png,k2_zo.png,158719,765260,44,Man
799612,OSSe4,v1,1366,2.7515812015396306,649,1366,768,5-16-2023,11-34-18,1,3,large,classroom,scaled,clipboard.png,1,zo,classroom,c3_zo.png,c,1,1930,3,3,clipboard.png,c3_zo.png,158719,765260,44,Man
799612,OSSe4,v1,1366,0.009819282638325778,649,1366,768,5-16-2023,11-34-18,1,4,large,laundromat,scaled,shorts.png,0,zo,classroom,c5_zo.png,m,1,1212,4,2,shorts.png,c5_zo.png,158719,765260,44,Man
799612,OSSe4,v1,1366,-0.02072959668090882,649,1366,768,5-16-2023,11-34-18,1,5,large,laundromat,misscaled,shirt.png,0,zi,bathroom,b2_zi.png,m,1,1204,5,1,shirt.png,b2_zi.png,158719,765260,44,Man
799612,OSSe4,v1,1366,-0.28803229072421155,649,1366,768,5-16-2023,11-34-18,1,6,small,classroom,scaled,paperclip.png,1,zi,classroom,c3_zi.png,c,1,1134,6,5,paperclip.png,c3_zi.png,158719,765260,44,Man
799612,OSSe4,v1,1366,-0.6202513533208878,649,1366,768,5-16-2023,11-34-18,1,7,large,kitchen,misscaled,pot.png,1,zi,kitchen,k0_zi.png,c,1,1047,7,1,pot.png,k0_zi.png,158719,765260,44,Man
799612,OSSe4,v1,1366,-1.2197731099608666,649,1366,768,5-16-2023,11-34-18,1,8,small,laundromat,scaled,socks.png,1,zi,laundromat,l3_zi.png,c,1,890,8,2,socks.png,l3_zi.png,158719,765260,44,Man
799612,OSSe4,v1,1366,0.3840430542989496,649,1366,768,5-16-2023,11-34-18,1,9,small,kitchen,scaled,sponge.png,0,zi,laundromat,l2_zi.png,m,1,1310,9,3,sponge.png,l2_zi.png,158719,765260,44,Man
799612,OSSe4,v1,1366,0.8117273647682339,649,1366,768,5-16-2023,11-34-18,1,10,small,classroom,misscaled,binderclip.png,0,zo,kitchen,k5_zo.png,c,0,1422,10,5,binderclip.png,k5_zo.png,158719,765260,44,Man
799612,OSSe4,v1,1366,0.8117273647682339,649,1366,768,5-16-2023,11-34-18,1,11,large,bathroom,scaled,tissuebox.png,1,zo,bathroom,b2_zo.png,c,1,1422,11,1,tissuebox.png,b2_zo.png,158719,765260,44,Man
799612,OSSe4,v1,1366,-0.7615399201723477,649,1366,768,5-16-2023,11-34-18,1,12,small,bathroom,misscaled,nailclipper.png,1,zo,bathroom,b4_zo.png,c,1,1010,12,5,nailclipper.png,b4_zo.png,158719,765260,44,Man
799612,OSSe4,v1,1366,-0.4064091980862456,649,1366,768,5-16-2023,11-34-18,1,13,large,bathroom,misscaled,loofah.png,0,zi,kitchen,k3_zi.png,m,1,1103,13,3,loofah.png,k3_zi.png,158719,765260,44,Man
799612,OSSe4,v1,1366,-0.8608237779598602,649,1366,768,5-16-2023,11-34-18,1,14,small,laundromat,scaled,tidepod.png,0,zi,kitchen,k2_zi.png,c,0,984,14,4,tidepod.png,k2_zi.png,158719,765260,44,Man
799612,OSSe4,v1,1366,-0.7118979912785915,649,1366,768,5-16-2023,11-34-18,1,15,small,classroom,misscaled,eraser.png,0,zo,bathroom,b3_zo.png,c,0,1023,15,5,eraser.png,b3_zo.png,158719,765260,44,Man
614362,OSSe4,v1,1536,-1.1306948117851499,794,1536,864,5-15-2023,11-12-19,1,0,large,bathroom,scaled,tissuebox.png,1,zo,bathroom,b5_zo.png,c,1,697,0,3,tissuebox.png,b5_zo.png,124478,320142,29,Man
614362,OSSe4,v1,1536,0.4738177943901559,794,1536,864,5-15-2023,11-12-19,1,1,small,bathroom,scaled,floss.png,1,zi,bathroom,b4_zi.png,c,1,1035,1,4,floss.png,b4_zi.png,124478,320142,29,Man
614362,OSSe4,v1,1536,-1.7098384151975383,794,1536,864,5-15-2023,11-12-19,1,2,small,kitchen,misscaled,sponge.png,1,zo,kitchen,k3_zo.png,c,1,575,2,3,sponge.png,k3_zo.png,124478,320142,29,Man
614362,OSSe4,v1,1536,-1.448749085790314,794,1536,864,5-15-2023,11-12-19,1,3,large,kitchen,scaled,kettle.png,0,zo,classroom,c3_zo.png,c,0,630,3,3,kettle.png,c3_zo.png,124478,320142,29,Man
614362,OSSe4,v1,1536,0.9722610596221296,794,1536,864,5-15-2023,11-12-19,1,4,large,laundromat,misscaled,detergent.png,0,zi,classroom,c2_zi.png,m,1,1140,4,2,detergent.png,c2_zi.png,124478,320142,29,Man
614362,OSSe4,v1,1536,-0.2287498556511022,794,1536,864,5-15-2023,11-12-19,1,5,large,classroom,scaled,notebook.png,1,zo,classroom,c2_zo.png,c,1,887,5,3,notebook.png,c2_zo.png,124478,320142,29,Man
614362,OSSe4,v1,1536,0.7823779109623301,794,1536,864,5-15-2023,11-12-19,1,6,large,kitchen,scaled,pot.png,0,zo,laundromat,l0_zo.png,m,1,1100,6,2,pot.png,l0_zo.png,124478,320142,29,Man
614362,OSSe4,v1,1536,-0.7366872783160658,794,1536,864,5-15-2023,11-12-19,1,7,large,laundromat,misscaled,shorts.png,1,zi,laundromat,l4_zi.png,c,1,780,7,2,shorts.png,l4_zi.png,124478,320142,29,Man
614362,OSSe4,v1,1536,-0.08633749415625258,794,1536,864,5-15-2023,11-12-19,1,8,small,laundromat,scaled,tidepod.png,1,zi,laundromat,l5_zi.png,c,1,917,8,2,tidepod.png,l5_zi.png,124478,320142,29,Man
614362,OSSe4,v1,1536,1.7270465755448325,794,1536,864,5-15-2023,11-12-19,1,9,small,bathroom,misscaled,lipstick.png,1,zo,bathroom,b2_zo.png,c,1,1299,9,2,lipstick.png,b2_zo.png,124478,320142,29,Man
614362,OSSe4,v1,1536,0.0323394737561221,794,1536,864,5-15-2023,11-12-19,1,10,small,bathroom,scaled,nailclipper.png,0,zi,laundromat,l2_zi.png,m,1,942,10,3,nailclipper.png,l2_zi.png,124478,320142,29,Man
614362,OSSe4,v1,1536,-0.4898391850583265,794,1536,864,5-15-2023,11-12-19,1,11,small,kitchen,misscaled,saltshaker.png,0,zo,bathroom,b1_zo.png,m,1,832,11,3,saltshaker.png,b1_zo.png,124478,320142,29,Man
614362,OSSe4,v1,1536,1.7080582606788526,794,1536,864,5-15-2023,11-12-19,1,12,large,bathroom,misscaled,hairdryer.png,1,zi,bathroom,b2_zi.png,c,1,1295,12,1,hairdryer.png,b2_zi.png,124478,320142,29,Man
614362,OSSe4,v1,1536,-0.13380828132120245,794,1536,864,5-15-2023,11-12-19,1,13,small,laundromat,scaled,coins.png,0,zi,classroom,c3_zi.png,m,1,907,13,4,coins.png,c3_zi.png,124478,320142,29,Man
614362,OSSe4,v1,1536,0.3788762200602562,794,1536,864,5-15-2023,11-12-19,1,14,large,laundromat,misscaled,shirt.png,0,zi,kitchen,k4_zi.png,m,1,1015,14,1,shirt.png,k4_zi.png,124478,320142,29,Man
614362,OSSe4,v1,1536,-0.11007288773872752,794,1536,864,5-15-2023,11-12-19,1,15,small,classroom,misscaled,paperclip.png,0,zo,laundromat,l1_zo.png,m,1,912,15,2,paperclip.png,l1_zo.png,124478,320142,29,Man
302293,OSSe4,v1,1920,0.4007079772418532,927,1920,1080,5-15-2023,10-16-52,1,0,small,laundromat,misscaled,coins.png,1,zo,laundromat,l0_zo.png,c,1,807,0,5,coins.png,l0_zo.png,108565,173968,29,Woman
302293,OSSe4,v1,1920,1.5141598355721566,927,1920,1080,5-15-2023,10-16-52,1,1,small,laundromat,scaled,socks.png,1,zi,laundromat,l2_zi.png,m,0,931,1,4,socks.png,l2_zi.png,108565,173968,29,Woman
302293,OSSe4,v1,1920,0.7958037979397028,927,1920,1080,5-15-2023,10-16-52,1,2,large,laundromat,scaled,shorts.png,0,zo,classroom,c5_zo.png,m,1,851,2,4,shorts.png,c5_zo.png,108565,173968,29,Woman
302293,OSSe4,v1,1920,-0.8923328904965638,927,1920,1080,5-15-2023,10-16-52,1,3,large,classroom,misscaled,notebook.png,1,zi,classroom,c2_zi.png,c,1,663,3,1,notebook.png,c2_zi.png,108565,173968,29,Woman
302293,OSSe4,v1,1920,-0.8474356381445355,927,1920,1080,5-15-2023,10-16-52,1,4,large,kitchen,misscaled,pot.png,1,zi,kitchen,k0_zi.png,c,1,668,4,1,pot.png,k0_zi.png,108565,173968,29,Woman
302293,OSSe4,v1,1920,1.9002762057996005,927,1920,1080,5-15-2023,10-16-52,1,5,large,bathroom,scaled,loofah.png,0,zo,laundromat,l4_zo.png,m,1,974,5,5,loofah.png,l4_zo.png,108565,173968,29,Woman
302293,OSSe4,v1,1920,-0.3625453127426291,927,1920,1080,5-15-2023,10-16-52,1,6,small,laundromat,scaled,tidepod.png,1,zi,laundromat,l1_zi.png,c,1,722,6,5,tidepod.png,l1_zi.png,108565,173968,29,Woman
302293,OSSe4,v1,1920,-0.05724399674883617,927,1920,1080,5-15-2023,10-16-52,1,7,small,classroom,scaled,binderclip.png,0,zi,laundromat,l0_zi.png,m,1,756,7,5,binderclip.png,l0_zi.png,108565,173968,29,Woman
302293,OSSe4,v1,1920,-1.1257986027271114,927,1920,1080,5-15-2023,10-16-52,1,8,large,classroom,misscaled,clipboard.png,0,zi,kitchen,k4_zi.png,m,1,637,8,2,clipboard.png,k4_zi.png,108565,173968,29,Woman
302293,OSSe4,v1,1920,0.06846830983684327,927,1920,1080,5-15-2023,10-16-52,1,9,large,bathroom,scaled,hairdryer.png,1,zo,bathroom,b5_zo.png,c,1,770,9,4,hairdryer.png,b5_zo.png,108565,173968,29,Woman
302293,OSSe4,v1,1920,-0.6498877277956107,927,1920,1080,5-15-2023,10-16-52,1,10,small,bathroom,misscaled,lipstick.png,0,zo,classroom,c2_zo.png,m,1,690,10,5,lipstick.png,c2_zo.png,108565,173968,29,Woman
302293,OSSe4,v1,1920,-1.0809013503750828,927,1920,1080,5-15-2023,10-16-52,1,11,large,kitchen,misscaled,kettle.png,0,zi,classroom,c1_zi.png,m,1,642,11,1,kettle.png,c1_zi.png,108565,173968,29,Woman
302293,OSSe4,v1,1920,1.585995439335402,927,1920,1080,5-15-2023,10-16-52,1,12,small,classroom,misscaled,eraser.png,0,zo,bathroom,b0_zo.png,m,1,939,12,5,eraser.png,b0_zo.png,108565,173968,29,Woman
302293,OSSe4,v1,1920,-0.06622344721924184,927,1920,1080,5-15-2023,10-16-52,1,13,large,laundromat,scaled,detergent.png,1,zo,laundromat,l5_zo.png,c,1,755,13,4,detergent.png,l5_zo.png,108565,173968,29,Woman
302293,OSSe4,v1,1920,-0.05724399674883617,927,1920,1080,5-15-2023,10-16-52,1,14,small,kitchen,misscaled,spoon.png,1,zo,kitchen,k3_zo.png,c,1,756,14,5,spoon.png,k3_zo.png,108565,173968,29,Woman
302293,OSSe4,v1,1920,-1.1257986027271114,927,1920,1080,5-15-2023,10-16-52,1,15,small,classroom,scaled,paperclip.png,0,zi,laundromat,l4_zi.png,m,1,637,15,5,paperclip.png,l4_zi.png,108565,173968,29,Woman
248126,OSSe4,v1,1525,2.3325300901869452,611,1525,750,5-15-2023,8-15-38,2,0,large,bathroom,misscaled,loofah.png,0,zi,classroom,c0_zi.png,m,1,1162,0,3,loofah.png,c0_zi.png,124065,250154,37,Woman
248126,OSSe4,v1,1525,-0.6886936848770047,611,1525,750,5-15-2023,8-15-38,2,1,large,laundromat,misscaled,shorts.png,1,zi,laundromat,l3_zi.png,m,0,819,1,2,shorts.png,l3_zi.png,124065,250154,37,Woman
248126,OSSe4,v1,1525,1.6983373444009267,611,1525,750,5-15-2023,8-15-38,2,2,large,classroom,misscaled,computer.png,1,zi,classroom,c3_zi.png,c,1,1090,2,1,computer.png,c3_zi.png,124065,250154,37,Woman
248126,OSSe4,v1,1525,-0.3715973119839953,611,1525,750,5-15-2023,8-15-38,2,3,small,bathroom,scaled,floss.png,0,zi,kitchen,k2_zi.png,m,1,855,3,1,floss.png,k2_zi.png,124065,250154,37,Woman
248126,OSSe4,v1,1525,-0.29232321876074296,611,1525,750,5-15-2023,8-15-38,2,4,small,kitchen,scaled,spoon.png,1,zi,kitchen,k5_zi.png,c,1,864,4,3,spoon.png,k5_zi.png,124065,250154,37,Woman
248126,OSSe4,v1,1525,-0.9000912668056775,611,1525,750,5-15-2023,8-15-38,2,5,large,bathroom,scaled,tissuebox.png,1,zo,bathroom,b4_zo.png,c,1,795,5,3,tissuebox.png,b4_zo.png,124065,250154,37,Woman
248126,OSSe4,v1,1525,-0.001651543608817757,611,1525,750,5-15-2023,8-15-38,2,6,small,laundromat,misscaled,socks.png,0,zo,classroom,c4_zo.png,m,1,897,6,3,socks.png,c4_zo.png,124065,250154,37,Woman
248126,OSSe4,v1,1525,-0.06330917167134735,611,1525,750,5-15-2023,8-15-38,2,7,large,bathroom,scaled,hairdryer.png,0,zo,classroom,c2_zo.png,m,1,890,7,3,hairdryer.png,c2_zo.png,124065,250154,37,Woman
248126,OSSe4,v1,1525,-0.32755614908218844,611,1525,750,5-15-2023,8-15-38,2,8,large,kitchen,scaled,pot.png,0,zo,classroom,c0_zo.png,m,1,860,8,3,pot.png,c0_zo.png,124065,250154,37,Woman
248126,OSSe4,v1,1525,-1.2964617329219392,611,1525,750,5-15-2023,8-15-38,2,9,large,laundromat,scaled,shirt.png,1,zo,laundromat,l3_zo.png,c,1,750,9,1,shirt.png,l3_zo.png,124065,250154,37,Woman
248126,OSSe4,v1,1525,0.033581386712627725,611,1525,750,5-15-2023,8-15-38,2,10,small,laundromat,misscaled,coins.png,0,zo,kitchen,k3_zo.png,m,1,901,10,3,coins.png,k3_zo.png,124065,250154,37,Woman
248126,OSSe4,v1,1525,-0.8912830342253162,611,1525,750,5-15-2023,8-15-38,2,11,small,bathroom,scaled,lipstick.png,0,zi,laundromat,l4_zi.png,m,1,796,11,4,lipstick.png,l4_zi.png,124065,250154,37,Woman
248126,OSSe4,v1,1525,0.491609480891419,611,1525,750,5-15-2023,8-15-38,2,12,small,laundromat,scaled,tidepod.png,1,zi,laundromat,l1_zi.png,m,0,953,12,4,tidepod.png,l1_zi.png,124065,250154,37,Woman
248126,OSSe4,v1,1525,1.1874598547399673,611,1525,750,5-15-2023,8-15-38,2,13,small,bathroom,misscaled,nailclipper.png,1,zo,bathroom,b2_zo.png,c,1,1032,13,5,nailclipper.png,b2_zo.png,124065,250154,37,Woman
248126,OSSe4,v1,1525,-0.9617488948682071,611,1525,750,5-15-2023,8-15-38,2,14,large,kitchen,misscaled,kettle.png,0,zi,classroom,c4_zi.png,m,1,788,14,3,kettle.png,c4_zi.png,124065,250154,37,Woman
248126,OSSe4,v1,1525,0.051197851873350464,611,1525,750,5-15-2023,8-15-38,2,15,small,classroom,misscaled,paperclip.png,1,zo,classroom,c3_zo.png,m,0,903,15,5,paperclip.png,c3_zo.png,124065,250154,37,Woman
752428,OSSe4,v1,2215,2.6712960544756332,1070,2240,1260,5-15-2023,11-32-42,1,0,small,kitchen,misscaled,sponge.png,1,zo,kitchen,k4_zo.png,c,1,1527,0,5,sponge.png,k4_zo.png,204716,490946,55,Woman
752428,OSSe4,v1,2215,0.20643233638969716,1070,2240,1260,5-15-2023,11-32-42,1,1,small,bathroom,misscaled,nailclipper.png,0,zo,classroom,c5_zo.png,m,1,1027,1,5,nailclipper.png,c5_zo.png,204716,490946,55,Woman
752428,OSSe4,v1,2215,-0.010475670801865228,1070,2240,1260,5-15-2023,11-32-42,1,2,large,kitchen,misscaled,pot.png,1,zi,kitchen,k0_zi.png,c,1,983,2,2,pot.png,k0_zi.png,204716,490946,55,Woman
752428,OSSe4,v1,2215,-0.12878912926999017,1070,2240,1260,5-15-2023,11-32-42,1,3,small,laundromat,scaled,tidepod.png,1,zi,laundromat,l4_zi.png,c,1,959,3,4,tidepod.png,l4_zi.png,204716,490946,55,Woman
752428,OSSe4,v1,2215,-1.1492427085575678,1070,2240,1260,5-15-2023,11-32-42,1,4,large,classroom,scaled,clipboard.png,0,zo,bathroom,b2_zo.png,m,1,752,4,2,clipboard.png,b2_zo.png,204716,490946,55,Woman
752428,OSSe4,v1,2215,1.4832317423582122,1070,2240,1260,5-15-2023,11-32-42,1,5,large,bathroom,misscaled,hairdryer.png,0,zi,laundromat,l5_zi.png,m,1,1286,5,3,hairdryer.png,l5_zi.png,204716,490946,55,Woman
752428,OSSe4,v1,2215,-1.1936102554831145,1070,2240,1260,5-15-2023,11-32-42,1,6,small,laundromat,scaled,coins.png,1,zi,laundromat,l2_zi.png,m,0,743,6,5,coins.png,l2_zi.png,204716,490946,55,Woman
752428,OSSe4,v1,2215,0.9409617243793061,1070,2240,1260,5-15-2023,11-32-42,1,7,large,kitchen,scaled,kettle.png,1,zo,kitchen,k0_zo.png,c,1,1176,7,3,kettle.png,k0_zo.png,204716,490946,55,Woman
752428,OSSe4,v1,2215,-0.7647239685361618,1070,2240,1260,5-15-2023,11-32-42,1,8,small,classroom,scaled,eraser.png,0,zi,kitchen,k1_zi.png,m,1,830,8,5,eraser.png,k1_zi.png,204716,490946,55,Woman
752428,OSSe4,v1,2215,0.2015026089535253,1070,2240,1260,5-15-2023,11-32-42,1,9,small,kitchen,scaled,saltshaker.png,0,zi,bathroom,b1_zi.png,m,1,1026,9,3,saltshaker.png,b1_zi.png,204716,490946,55,Woman
752428,OSSe4,v1,2215,-0.3013295895360057,1070,2240,1260,5-15-2023,11-32-42,1,10,large,bathroom,scaled,tissuebox.png,0,zo,laundromat,l5_zo.png,m,1,924,10,4,tissuebox.png,l5_zo.png,204716,490946,55,Woman
752428,OSSe4,v1,2215,-0.3555565913338963,1070,2240,1260,5-15-2023,11-32-42,1,11,small,classroom,misscaled,paperclip.png,1,zo,classroom,c1_zo.png,c,1,913,11,5,paperclip.png,c1_zo.png,204716,490946,55,Woman
752428,OSSe4,v1,2215,-0.025264853110380847,1070,2240,1260,5-15-2023,11-32-42,1,12,large,kitchen,misscaled,toaster.png,1,zi,kitchen,k3_zi.png,c,1,980,12,1,toaster.png,k3_zi.png,204716,490946,55,Woman
752428,OSSe4,v1,2215,-0.8830374270042867,1070,2240,1260,5-15-2023,11-32-42,1,13,small,classroom,misscaled,binderclip.png,0,zo,bathroom,b3_zo.png,m,1,806,13,5,binderclip.png,b3_zo.png,204716,490946,55,Woman
752428,OSSe4,v1,2215,-0.10907021952530267,1070,2240,1260,5-15-2023,11-32-42,1,14,large,classroom,misscaled,computer.png,0,zi,kitchen,k2_zi.png,m,1,963,14,1,computer.png,k2_zi.png,204716,490946,55,Woman
752428,OSSe4,v1,2215,-0.5823240533978025,1070,2240,1260,5-15-2023,11-32-42,1,15,large,bathroom,scaled,loofah.png,1,zo,bathroom,b5_zo.png,c,1,867,15,4,loofah.png,b5_zo.png,204716,490946,55,Woman
786941,OSSe4,v1,1366,2.3107141091997874,649,1366,768,5-16-2023,11-28-20,1,0,small,kitchen,scaled,sponge.png,1,zi,kitchen,k3_zi.png,c,1,1783,0,3,sponge.png,k3_zi.png,137477,194948,48,Woman
786941,OSSe4,v1,1366,-0.23548363052347115,649,1366,768,5-16-2023,11-28-20,1,1,small,kitchen,misscaled,saltshaker.png,1,zo,kitchen,k0_zo.png,c,1,1141,1,5,saltshaker.png,k0_zo.png,137477,194948,48,Woman
786941,OSSe4,v1,1366,-1.1794011726638691,649,1366,768,5-16-2023,11-28-20,1,2,small,classroom,scaled,paperclip.png,0,zi,kitchen,k0_zi.png,m,1,903,2,5,paperclip.png,k0_zi.png,137477,194948,48,Woman
786941,OSSe4,v1,1366,2.088615863990282,649,1366,768,5-16-2023,11-28-20,1,3,large,laundromat,scaled,detergent.png,0,zo,bathroom,b2_zo.png,m,1,1727,3,3,detergent.png,b2_zo.png,137477,194948,48,Woman
786941,OSSe4,v1,1366,-0.441717715360869,649,1366,768,5-16-2023,11-28-20,1,4,large,bathroom,scaled,hairdryer.png,1,zo,bathroom,b3_zo.png,c,1,1089,4,4,hairdryer.png,b3_zo.png,137477,194948,48,Woman
786941,OSSe4,v1,1366,-0.21565343005833673,649,1366,768,5-16-2023,11-28-20,1,5,large,bathroom,scaled,loofah.png,1,zo,bathroom,b1_zo.png,c,1,1146,5,4,loofah.png,b1_zo.png,137477,194948,48,Woman
786941,OSSe4,v1,1366,0.9543283973845936,649,1366,768,5-16-2023,11-28-20,1,6,small,bathroom,misscaled,floss.png,0,zo,laundromat,l5_zo.png,c,0,1441,6,5,floss.png,l5_zo.png,137477,194948,48,Woman
786941,OSSe4,v1,1366,0.5061658668725558,649,1366,768,5-16-2023,11-28-20,1,7,small,bathroom,scaled,nailclipper.png,1,zi,bathroom,b1_zi.png,c,1,1328,7,4,nailclipper.png,b1_zi.png,137477,194948,48,Woman
786941,OSSe4,v1,1366,-0.6876122011285357,649,1366,768,5-16-2023,11-28-20,1,8,large,bathroom,misscaled,tissuebox.png,0,zi,kitchen,k4_zi.png,m,1,1027,8,2,tissuebox.png,k4_zi.png,137477,194948,48,Woman
786941,OSSe4,v1,1366,-0.04511370605818079,649,1366,768,5-16-2023,11-28-20,1,9,large,laundromat,scaled,shirt.png,0,zo,kitchen,k1_zo.png,m,1,1189,9,3,shirt.png,k1_zo.png,137477,194948,48,Woman
786941,OSSe4,v1,1366,-0.32670255266308945,649,1366,768,5-16-2023,11-28-20,1,10,large,laundromat,misscaled,shorts.png,1,zi,laundromat,l2_zi.png,c,1,1118,10,1,shorts.png,l2_zi.png,137477,194948,48,Woman
786941,OSSe4,v1,1366,-0.5329366375004874,649,1366,768,5-16-2023,11-28-20,1,11,small,bathroom,misscaled,lipstick.png,1,zo,bathroom,b4_zo.png,c,1,1066,11,5,lipstick.png,b4_zo.png,137477,194948,48,Woman
786941,OSSe4,v1,1366,-0.9929972882916057,649,1366,768,5-16-2023,11-28-20,1,12,small,classroom,scaled,binderclip.png,0,zi,kitchen,k1_zi.png,m,1,950,12,4,binderclip.png,k1_zi.png,137477,194948,48,Woman
786941,OSSe4,v1,1366,-0.18789114940714854,649,1366,768,5-16-2023,11-28-20,1,13,large,classroom,misscaled,computer.png,1,zi,classroom,c2_zi.png,c,1,1153,13,1,computer.png,c2_zi.png,137477,194948,48,Woman
786941,OSSe4,v1,1366,-0.3623969135003314,649,1366,768,5-16-2023,11-28-20,1,14,large,classroom,misscaled,clipboard.png,0,zi,bathroom,b4_zi.png,m,1,1109,14,2,clipboard.png,b4_zi.png,137477,194948,48,Woman
786941,OSSe4,v1,1366,-0.6519178402912938,649,1366,768,5-16-2023,11-28-20,1,15,small,kitchen,misscaled,spoon.png,0,zo,classroom,c1_zo.png,m,1,1036,15,4,spoon.png,c1_zo.png,137477,194948,48,Woman
695798,OSSe4,v1,1881,3.176981322216374,888,1920,1080,5-15-2023,11-47-24,1,0,small,laundromat,misscaled,tidepod.png,0,zo,bathroom,b1_zo.png,m,1,1505,0,4,tidepod.png,b1_zo.png,107674,229169,40,Man
695798,OSSe4,v1,1881,1.2060036093754154,888,1920,1080,5-15-2023,11-47-24,1,1,large,laundromat,misscaled,shorts.png,1,zi,laundromat,l1_zi.png,c,1,1081,1,1,shorts.png,l1_zi.png,107674,229169,40,Man
695798,OSSe4,v1,1881,0.029924926949088847,888,1920,1080,5-15-2023,11-47-24,1,2,small,laundromat,scaled,socks.png,0,zi,kitchen,k1_zi.png,m,1,828,2,3,socks.png,k1_zi.png,107674,229169,40,Man
695798,OSSe4,v1,1881,0.4761840317432681,888,1920,1080,5-15-2023,11-47-24,1,3,small,bathroom,scaled,lipstick.png,1,zi,bathroom,b4_zi.png,m,0,924,3,3,lipstick.png,b4_zi.png,107674,229169,40,Man
695798,OSSe4,v1,1881,0.05781612099872505,888,1920,1080,5-15-2023,11-47-24,1,4,small,classroom,scaled,paperclip.png,1,zi,classroom,c0_zi.png,c,1,834,4,5,paperclip.png,c0_zi.png,107674,229169,40,Man
695798,OSSe4,v1,1881,-0.17461049608157667,888,1920,1080,5-15-2023,11-47-24,1,5,large,bathroom,scaled,loofah.png,1,zo,bathroom,b5_zo.png,c,1,784,5,4,loofah.png,b5_zo.png,107674,229169,40,Man
695798,OSSe4,v1,1881,-0.3837944514538482,888,1920,1080,5-15-2023,11-47-24,1,6,large,bathroom,scaled,hairdryer.png,1,zo,bathroom,b4_zo.png,c,1,739,6,4,hairdryer.png,b4_zo.png,107674,229169,40,Man
695798,OSSe4,v1,1881,-0.9555639294713905,888,1920,1080,5-15-2023,11-47-24,1,7,large,laundromat,misscaled,shirt.png,0,zi,classroom,c4_zi.png,m,1,616,7,1,shirt.png,c4_zi.png,107674,229169,40,Man
695798,OSSe4,v1,1881,0.187975026563694,888,1920,1080,5-15-2023,11-47-24,1,8,small,kitchen,misscaled,sponge.png,1,zo,kitchen,k5_zo.png,c,1,862,8,3,sponge.png,k5_zo.png,107674,229169,40,Man
695798,OSSe4,v1,1881,-0.7370829094159068,888,1920,1080,5-15-2023,11-47-24,1,9,small,kitchen,scaled,spoon.png,0,zi,classroom,c3_zi.png,m,1,663,9,2,spoon.png,c3_zi.png,107674,229169,40,Man
695798,OSSe4,v1,1881,-0.1932046254480008,888,1920,1080,5-15-2023,11-47-24,1,10,small,laundromat,misscaled,coins.png,1,zo,laundromat,l5_zo.png,c,1,780,10,4,coins.png,l5_zo.png,107674,229169,40,Man
695798,OSSe4,v1,1881,-0.5325474863852413,888,1920,1080,5-15-2023,11-47-24,1,11,large,classroom,scaled,clipboard.png,0,zo,bathroom,b0_zo.png,m,1,707,11,2,clipboard.png,b0_zo.png,107674,229169,40,Man
695798,OSSe4,v1,1881,-0.4814136306275749,888,1920,1080,5-15-2023,11-47-24,1,12,large,classroom,scaled,computer.png,0,zo,kitchen,k3_zo.png,m,1,718,12,2,computer.png,k3_zo.png,107674,229169,40,Man
695798,OSSe4,v1,1881,-0.5883298744845137,888,1920,1080,5-15-2023,11-47-24,1,13,small,kitchen,misscaled,saltshaker.png,0,zo,bathroom,b3_zo.png,m,1,695,13,4,saltshaker.png,b3_zo.png,107674,229169,40,Man
695798,OSSe4,v1,1881,-0.3698488544290301,888,1920,1080,5-15-2023,11-47-24,1,14,large,kitchen,misscaled,pot.png,1,zi,kitchen,k5_zi.png,c,1,742,14,1,pot.png,k5_zi.png,107674,229169,40,Man
695798,OSSe4,v1,1881,-0.7184887800494827,888,1920,1080,5-15-2023,11-47-24,1,15,large,bathroom,misscaled,tissuebox.png,0,zi,kitchen,k2_zi.png,m,1,667,15,1,tissuebox.png,k2_zi.png,107674,229169,40,Man
299023,OSSe4,v1,1440,2.159140782986242,789,1440,900,5-16-2023,11-27-2,2,1,small,bathroom,misscaled,nailclipper.png,0,zo,laundromat,l2_zo.png,m,1,1869,1,2,nailclipper.png,l2_zo.png,106008,454257,49,Man
299023,OSSe4,v1,1440,-0.4434696907262396,789,1440,900,5-16-2023,11-27-2,2,2,large,laundromat,scaled,shirt.png,1,zo,laundromat,l5_zo.png,c,1,1358,2,2,shirt.png,l5_zo.png,106008,454257,49,Man
299023,OSSe4,v1,1440,1.3085811956868594,789,1440,900,5-16-2023,11-27-2,2,4,small,kitchen,scaled,saltshaker.png,0,zi,bathroom,b1_zi.png,m,1,1702,4,3,saltshaker.png,b1_zi.png,106008,454257,49,Man
299023,OSSe4,v1,1440,0.5751645455604458,789,1440,900,5-16-2023,11-27-2,2,5,small,classroom,scaled,eraser.png,1,zi,classroom,c3_zi.png,m,0,1558,5,2,eraser.png,c3_zi.png,106008,454257,49,Man
299023,OSSe4,v1,1440,-1.090302430768285,789,1440,900,5-16-2023,11-27-2,2,6,large,kitchen,scaled,kettle.png,1,zo,kitchen,k2_zo.png,c,1,1231,6,2,kettle.png,k2_zo.png,106008,454257,49,Man
299023,OSSe4,v1,1440,-1.212538539122687,789,1440,900,5-16-2023,11-27-2,2,7,large,kitchen,misscaled,pot.png,1,zi,kitchen,k3_zi.png,c,1,1207,7,2,pot.png,k3_zi.png,106008,454257,49,Man
299023,OSSe4,v1,1440,-0.39763115009333877,789,1440,900,5-16-2023,11-27-2,2,8,large,bathroom,scaled,loofah.png,0,zo,classroom,c2_zo.png,m,1,1367,8,2,loofah.png,c2_zo.png,106008,454257,49,Man
299023,OSSe4,v1,1440,-0.8509233852409138,789,1440,900,5-16-2023,11-27-2,2,9,large,classroom,scaled,computer.png,0,zo,kitchen,k3_zo.png,m,1,1278,9,2,computer.png,k3_zo.png,106008,454257,49,Man
299023,OSSe4,v1,1440,-0.6471965379835767,789,1440,900,5-16-2023,11-27-2,2,10,small,kitchen,scaled,spoon.png,0,zi,bathroom,b0_zi.png,m,1,1318,10,1,spoon.png,b0_zi.png,106008,454257,49,Man
299023,OSSe4,v1,1440,-0.7643394751565455,789,1440,900,5-16-2023,11-27-2,2,11,small,bathroom,scaled,floss.png,1,zi,bathroom,b3_zi.png,c,1,1295,11,2,floss.png,b3_zi.png,106008,454257,49,Man
299023,OSSe4,v1,1440,0.3765308694845422,789,1440,900,5-16-2023,11-27-2,2,12,small,laundromat,misscaled,coins.png,1,zo,laundromat,l0_zo.png,m,0,1519,12,2,coins.png,l0_zo.png,106008,454257,49,Man
299023,OSSe4,v1,1440,-0.448562861907673,789,1440,900,5-16-2023,11-27-2,2,13,large,classroom,misscaled,notebook.png,0,zi,kitchen,k2_zi.png,m,1,1357,13,2,notebook.png,k2_zi.png,106008,454257,49,Man
299023,OSSe4,v1,1440,0.41727623893600957,789,1440,900,5-16-2023,11-27-2,2,14,large,classroom,misscaled,clipboard.png,1,zi,classroom,c1_zi.png,c,1,1527,14,1,clipboard.png,c1_zi.png,106008,454257,49,Man
299023,OSSe4,v1,1440,1.018270438345154,789,1440,900,5-16-2023,11-27-2,2,15,small,classroom,misscaled,paperclip.png,0,zo,bathroom,b3_zo.png,c,0,1645,15,1,paperclip.png,b3_zo.png,106008,454257,49,Man
262632,OSSe4,v1,1517,1.5315485517066494,730,1366,768,5-16-2023,9-35-4,2,0,large,bathroom,misscaled,tissuebox.png,0,zi,kitchen,k2_zi.png,m,1,1313,0,4,tissuebox.png,k2_zi.png,147306,720996,50,Woman
262632,OSSe4,v1,1517,2.174033482860934,730,1366,768,5-16-2023,9-35-4,2,1,small,laundromat,misscaled,socks.png,1,zo,laundromat,l4_zo.png,c,1,1441,1,5,socks.png,l4_zo.png,147306,720996,50,Woman
262632,OSSe4,v1,1517,1.2906167025237925,730,1366,768,5-16-2023,9-35-4,2,2,large,kitchen,misscaled,pot.png,1,zi,kitchen,k4_zi.png,m,0,1265,2,3,pot.png,k4_zi.png,147306,720996,50,Woman
262632,OSSe4,v1,1517,-0.5715857151187044,730,1366,768,5-16-2023,9-35-4,2,3,small,kitchen,scaled,sponge.png,1,zi,kitchen,k3_zi.png,c,1,894,3,2,sponge.png,k3_zi.png,147306,720996,50,Woman
262632,OSSe4,v1,1517,-0.33065386593584767,730,1366,768,5-16-2023,9-35-4,2,4,small,laundromat,misscaled,coins.png,1,zo,laundromat,l2_zo.png,c,1,942,4,5,coins.png,l2_zo.png,147306,720996,50,Woman
262632,OSSe4,v1,1517,0.19638455415165146,730,1366,768,5-16-2023,9-35-4,2,5,large,classroom,misscaled,notebook.png,0,zi,kitchen,k0_zi.png,m,1,1047,5,1,notebook.png,k0_zi.png,147306,720996,50,Woman
262632,OSSe4,v1,1517,0.7936947635841505,730,1366,768,5-16-2023,9-35-4,2,6,small,bathroom,misscaled,nailclipper.png,0,zo,classroom,c2_zo.png,m,1,1166,6,2,nailclipper.png,c2_zo.png,147306,720996,50,Woman
262632,OSSe4,v1,1517,-0.009411400358705342,730,1366,768,5-16-2023,9-35-4,2,7,small,bathroom,misscaled,lipstick.png,0,zo,laundromat,l1_zo.png,m,1,1006,7,1,lipstick.png,l1_zo.png,147306,720996,50,Woman
262632,OSSe4,v1,1517,-0.2955179712633477,730,1366,768,5-16-2023,9-35-4,2,8,large,kitchen,scaled,kettle.png,0,zo,classroom,c1_zo.png,m,1,949,8,2,kettle.png,c1_zo.png,147306,720996,50,Woman
262632,OSSe4,v1,1517,0.30681165169379415,730,1366,768,5-16-2023,9-35-4,2,9,large,laundromat,scaled,shirt.png,0,zo,classroom,c3_zo.png,m,1,1069,9,1,shirt.png,c3_zo.png,147306,720996,50,Woman
262632,OSSe4,v1,1517,-0.17505204667191937,730,1366,768,5-16-2023,9-35-4,2,10,large,classroom,misscaled,computer.png,1,zi,classroom,c1_zi.png,c,1,973,10,1,computer.png,c1_zi.png,147306,720996,50,Woman
262632,OSSe4,v1,1517,-0.8225563913508469,730,1366,768,5-16-2023,9-35-4,2,11,small,classroom,scaled,paperclip.png,1,zi,classroom,c5_zi.png,m,0,844,11,1,paperclip.png,c5_zi.png,147306,720996,50,Woman
262632,OSSe4,v1,1517,-0.9028670077451325,730,1366,768,5-16-2023,9-35-4,2,12,large,kitchen,scaled,toaster.png,1,zo,kitchen,k2_zo.png,m,0,828,12,3,toaster.png,k2_zo.png,147306,720996,50,Woman
262632,OSSe4,v1,1517,-1.2743036085687032,730,1366,768,5-16-2023,9-35-4,2,13,small,bathroom,scaled,floss.png,0,zi,laundromat,l5_zi.png,m,1,754,13,1,floss.png,l5_zi.png,147306,720996,50,Woman
262632,OSSe4,v1,1517,-0.9982358647133466,730,1366,768,5-16-2023,9-35-4,2,14,large,classroom,scaled,clipboard.png,1,zo,classroom,c5_zo.png,c,1,809,14,2,clipboard.png,c5_zo.png,147306,720996,50,Woman
262632,OSSe4,v1,1517,-0.9129058347944181,730,1366,768,5-16-2023,9-35-4,2,15,small,laundromat,scaled,tidepod.png,0,zi,classroom,c4_zi.png,m,1,826,15,1,tidepod.png,c4_zi.png,147306,720996,50,Woman
978841,OSSe4,v1,1536,0.13673303239404205,714,1536,864,5-15-2023,10-46-21,1,0,large,kitchen,misscaled,kettle.png,1,zi,kitchen,k2_zi.png,c,1,942,0,2,kettle.png,k2_zi.png,111048,182335,29,Woman
978841,OSSe4,v1,1536,-0.24398855390832958,714,1536,864,5-15-2023,10-46-21,1,1,large,laundromat,scaled,shorts.png,1,zo,laundromat,l0_zo.png,c,1,875,1,2,shorts.png,l0_zo.png,111048,182335,29,Woman
978841,OSSe4,v1,1536,-0.7497231983995396,714,1536,864,5-15-2023,10-46-21,1,2,large,kitchen,scaled,toaster.png,0,zo,bathroom,b5_zo.png,m,1,786,2,3,toaster.png,b5_zo.png,111048,182335,29,Woman
978841,OSSe4,v1,1536,-0.6076629050031322,714,1536,864,5-15-2023,10-46-21,1,3,small,laundromat,misscaled,tidepod.png,1,zo,laundromat,l4_zo.png,c,1,811,3,5,tidepod.png,l4_zo.png,111048,182335,29,Woman
978841,OSSe4,v1,1536,-0.2098940834931918,714,1536,864,5-15-2023,10-46-21,1,4,small,classroom,scaled,eraser.png,1,zi,classroom,c1_zi.png,c,1,881,4,4,eraser.png,c1_zi.png,111048,182335,29,Woman
978841,OSSe4,v1,1536,-0.7610880218712522,714,1536,864,5-15-2023,10-46-21,1,5,small,kitchen,scaled,saltshaker.png,1,zi,kitchen,k0_zi.png,c,1,784,5,3,saltshaker.png,k0_zi.png,111048,182335,29,Woman
978841,OSSe4,v1,1536,1.8471389648867862,714,1536,864,5-15-2023,10-46-21,1,6,small,kitchen,scaled,spoon.png,0,zi,classroom,c4_zi.png,m,1,1243,6,1,spoon.png,c4_zi.png,111048,182335,29,Woman
978841,OSSe4,v1,1536,-0.8065473157581026,714,1536,864,5-15-2023,10-46-21,1,7,large,kitchen,scaled,pot.png,1,zo,kitchen,k1_zo.png,c,1,776,7,4,pot.png,k1_zo.png,111048,182335,29,Woman
978841,OSSe4,v1,1536,-0.698581492776833,714,1536,864,5-15-2023,10-46-21,1,8,large,laundromat,misscaled,detergent.png,1,zi,laundromat,l3_zi.png,c,1,795,8,1,detergent.png,l3_zi.png,111048,182335,29,Woman
978841,OSSe4,v1,1536,-0.17011720134219777,714,1536,864,5-15-2023,10-46-21,1,9,large,laundromat,scaled,shirt.png,0,zo,bathroom,b1_zo.png,c,0,888,9,2,shirt.png,b1_zo.png,111048,182335,29,Woman
978841,OSSe4,v1,1536,1.9948816700190497,714,1536,864,5-15-2023,10-46-21,1,10,small,bathroom,misscaled,floss.png,0,zo,laundromat,l2_zo.png,c,0,1269,10,5,floss.png,l2_zo.png,111048,182335,29,Woman
978841,OSSe4,v1,1536,-0.5735684345879946,714,1536,864,5-15-2023,10-46-21,1,11,large,classroom,misscaled,notebook.png,0,zi,kitchen,k4_zi.png,m,1,817,11,1,notebook.png,k4_zi.png,111048,182335,29,Woman
978841,OSSe4,v1,1536,1.0061420279800548,714,1536,864,5-15-2023,10-46-21,1,12,small,kitchen,misscaled,sponge.png,0,zo,classroom,c4_zo.png,m,1,1095,12,2,sponge.png,c4_zo.png,111048,182335,29,Woman
978841,OSSe4,v1,1536,-1.2781874898341747,714,1536,864,5-15-2023,10-46-21,1,13,small,classroom,misscaled,paperclip.png,1,zo,classroom,c2_zo.png,c,1,693,13,5,paperclip.png,c2_zo.png,111048,182335,29,Woman
978841,OSSe4,v1,1536,1.3357219086597198,714,1536,864,5-15-2023,10-46-21,1,14,large,classroom,misscaled,computer.png,0,zi,laundromat,l2_zi.png,m,1,1153,14,1,computer.png,l2_zi.png,111048,182335,29,Woman
978841,OSSe4,v1,1536,-0.22125890696490438,714,1536,864,5-15-2023,10-46-21,1,15,small,bathroom,scaled,nailclipper.png,0,zi,kitchen,k3_zi.png,m,1,879,15,4,nailclipper.png,k3_zi.png,111048,182335,29,Woman
717865,OSSe4,v1,1196,1.3228523972398891,525,1366,768,5-15-2023,10-51-24,2,0,large,kitchen,scaled,kettle.png,1,zo,kitchen,k2_zo.png,c,1,1410,0,1,kettle.png,k2_zo.png,94835,186395,35,Man
717865,OSSe4,v1,1196,-0.8120754165128027,525,1366,768,5-15-2023,10-51-24,2,1,large,classroom,misscaled,computer.png,0,zi,bathroom,b1_zi.png,m,1,749,1,5,computer.png,b1_zi.png,94835,186395,35,Man
717865,OSSe4,v1,1196,1.3809896145584193,525,1366,768,5-15-2023,10-51-24,2,4,large,laundromat,scaled,shorts.png,0,zo,bathroom,b2_zo.png,m,1,1428,4,3,shorts.png,b2_zo.png,94835,186395,35,Man
717865,OSSe4,v1,1196,0.30545109416561095,525,1366,768,5-15-2023,10-51-24,2,5,large,kitchen,misscaled,toaster.png,1,zi,kitchen,k3_zi.png,c,1,1095,5,4,toaster.png,k3_zi.png,94835,186395,35,Man
717865,OSSe4,v1,1196,-0.9994064500947333,525,1366,768,5-15-2023,10-51-24,2,6,small,kitchen,scaled,spoon.png,0,zi,laundromat,l3_zi.png,c,0,691,6,2,spoon.png,l3_zi.png,94835,186395,35,Man
717865,OSSe4,v1,1196,-0.7765471170403675,525,1366,768,5-15-2023,10-51-24,2,7,small,kitchen,misscaled,sponge.png,1,zo,kitchen,k3_zo.png,c,1,760,7,5,sponge.png,k3_zo.png,94835,186395,35,Man
717865,OSSe4,v1,1196,0.33451970282487603,525,1366,768,5-15-2023,10-51-24,2,8,small,classroom,misscaled,binderclip.png,0,zo,kitchen,k0_zo.png,m,1,1104,8,4,binderclip.png,k0_zo.png,94835,186395,35,Man
717865,OSSe4,v1,1196,-0.8637529430181629,525,1366,768,5-15-2023,10-51-24,2,9,small,kitchen,scaled,saltshaker.png,1,zi,kitchen,k1_zi.png,c,1,733,9,1,saltshaker.png,k1_zi.png,94835,186395,35,Man
717865,OSSe4,v1,1196,-0.7991560348864626,525,1366,768,5-15-2023,10-51-24,2,10,large,bathroom,misscaled,loofah.png,0,zi,laundromat,l5_zi.png,m,1,753,10,2,loofah.png,l5_zi.png,94835,186395,35,Man
717865,OSSe4,v1,1196,1.0644647647130883,525,1366,768,5-15-2023,10-51-24,2,11,large,laundromat,scaled,shirt.png,1,zo,laundromat,l1_zo.png,c,1,1330,11,2,shirt.png,l1_zo.png,94835,186395,35,Man
717865,OSSe4,v1,1196,0.2020960411548906,525,1366,768,5-15-2023,10-51-24,2,12,small,classroom,scaled,paperclip.png,1,zi,classroom,c1_zi.png,c,1,1063,12,4,paperclip.png,c1_zi.png,94835,186395,35,Man
717865,OSSe4,v1,1196,-0.9606483052157131,525,1366,768,5-15-2023,10-51-24,2,13,large,kitchen,misscaled,pot.png,1,zi,kitchen,k0_zi.png,c,1,703,13,5,pot.png,k0_zi.png,94835,186395,35,Man
717865,OSSe4,v1,1196,1.56832064814035,525,1366,768,5-15-2023,10-51-24,2,14,small,laundromat,misscaled,socks.png,1,zo,laundromat,l2_zo.png,c,1,1486,14,4,socks.png,l2_zo.png,94835,186395,35,Man
717865,OSSe4,v1,1196,-0.9671079960288832,525,1366,768,5-15-2023,10-51-24,2,15,small,bathroom,misscaled,nailclipper.png,0,zo,kitchen,k1_zo.png,m,1,701,15,2,nailclipper.png,k1_zo.png,94835,186395,35,Man
675379,OSSe4,v1,1408,-0.3724518222297422,1286,2560,1440,5-15-2023,10-46-45,1,0,small,bathroom,misscaled,lipstick.png,0,zo,classroom,c2_zo.png,m,1,1191,0,5,lipstick.png,c2_zo.png,128719,214817,55,Man
675379,OSSe4,v1,1408,1.2877762266762673,1286,2560,1440,5-15-2023,10-46-45,1,1,large,bathroom,scaled,tissuebox.png,0,zo,laundromat,l1_zo.png,m,1,1493,1,5,tissuebox.png,l1_zo.png,128719,214817,55,Man
675379,OSSe4,v1,1408,0.39169287577666617,1286,2560,1440,5-15-2023,10-46-45,1,2,large,bathroom,scaled,hairdryer.png,0,zo,laundromat,l3_zo.png,m,1,1330,2,5,hairdryer.png,l3_zo.png,128719,214817,55,Man
675379,OSSe4,v1,1408,-0.6968010105921746,1286,2560,1440,5-15-2023,10-46-45,1,3,large,bathroom,misscaled,loofah.png,1,zi,bathroom,b2_zi.png,c,1,1132,3,3,loofah.png,b2_zi.png,128719,214817,55,Man
675379,OSSe4,v1,1408,-1.2465453976471446,1286,2560,1440,5-15-2023,10-46-45,1,4,large,kitchen,misscaled,toaster.png,0,zi,classroom,c5_zi.png,m,1,1032,4,1,toaster.png,c5_zi.png,128719,214817,55,Man
675379,OSSe4,v1,1408,-0.33396971513589435,1286,2560,1440,5-15-2023,10-46-45,1,5,small,bathroom,misscaled,nailclipper.png,1,zo,bathroom,b0_zo.png,m,0,1198,5,5,nailclipper.png,b0_zo.png,128719,214817,55,Man
675379,OSSe4,v1,1408,1.5406586447215536,1286,2560,1440,5-15-2023,10-46-45,1,6,small,bathroom,misscaled,floss.png,1,zo,bathroom,b5_zo.png,c,1,1539,6,5,floss.png,b5_zo.png,128719,214817,55,Man
675379,OSSe4,v1,1408,0.578605967375356,1286,2560,1440,5-15-2023,10-46-45,1,7,small,laundromat,scaled,socks.png,0,zi,kitchen,k5_zi.png,m,1,1364,7,2,socks.png,k5_zi.png,128719,214817,55,Man
675379,OSSe4,v1,1408,0.8094986099384435,1286,2560,1440,5-15-2023,10-46-45,1,8,small,classroom,scaled,eraser.png,1,zi,classroom,c4_zi.png,c,1,1406,8,4,eraser.png,c4_zi.png,128719,214817,55,Man
675379,OSSe4,v1,1408,-1.5324124789157292,1286,2560,1440,5-15-2023,10-46-45,1,9,large,classroom,scaled,clipboard.png,1,zo,classroom,c1_zo.png,c,1,980,9,3,clipboard.png,c1_zo.png,128719,214817,55,Man
675379,OSSe4,v1,1408,-1.5269150350451794,1286,2560,1440,5-15-2023,10-46-45,1,10,large,kitchen,misscaled,pot.png,1,zi,kitchen,k0_zi.png,c,1,981,10,1,pot.png,k0_zi.png,128719,214817,55,Man
675379,OSSe4,v1,1408,-0.015117970644011677,1286,2560,1440,5-15-2023,10-46-45,1,11,small,kitchen,scaled,spoon.png,1,zi,kitchen,k4_zi.png,c,1,1256,11,3,spoon.png,k4_zi.png,128719,214817,55,Man
675379,OSSe4,v1,1408,-1.0321450866957063,1286,2560,1440,5-15-2023,10-46-45,1,12,small,kitchen,misscaled,saltshaker.png,0,zo,laundromat,l2_zo.png,m,1,1071,12,5,saltshaker.png,l2_zo.png,128719,214817,55,Man
675379,OSSe4,v1,1408,0.4026877635177656,1286,2560,1440,5-15-2023,10-46-45,1,13,large,classroom,scaled,computer.png,1,zo,classroom,c4_zo.png,c,1,1332,13,1,computer.png,c4_zo.png,128719,214817,55,Man
675379,OSSe4,v1,1408,0.6445752938219524,1286,2560,1440,5-15-2023,10-46-45,1,14,small,laundromat,scaled,coins.png,0,zi,bathroom,b1_zi.png,m,1,1376,14,5,coins.png,b1_zi.png,128719,214817,55,Man
675379,OSSe4,v1,1408,1.1008631350775775,1286,2560,1440,5-15-2023,10-46-45,1,15,large,classroom,misscaled,notebook.png,0,zi,laundromat,l5_zi.png,m,1,1459,15,3,notebook.png,l5_zi.png,128719,214817,55,Man
401287,OSSe4,v1,1920,0.402945706707783,932,1920,1080,5-16-2023,8-26-35,2,0,large,kitchen,scaled,pot.png,1,zo,kitchen,k2_zo.png,c,1,1315,0,3,pot.png,k2_zo.png,164136,296496,41,Man
401287,OSSe4,v1,1920,1.9175778837963646,932,1920,1080,5-16-2023,8-26-35,2,1,small,bathroom,scaled,nailclipper.png,1,zi,bathroom,b0_zi.png,c,1,1810,1,5,nailclipper.png,b0_zi.png,164136,296496,41,Man
401287,OSSe4,v1,1920,1.0149183035112503,932,1920,1080,5-16-2023,8-26-35,2,2,small,bathroom,misscaled,floss.png,1,zo,bathroom,b4_zo.png,c,1,1515,2,5,floss.png,b4_zo.png,164136,296496,41,Man
401287,OSSe4,v1,1920,0.18263557185853477,932,1920,1080,5-16-2023,8-26-35,2,3,large,classroom,scaled,notebook.png,0,zo,laundromat,l1_zo.png,m,1,1243,3,5,notebook.png,l1_zo.png,164136,296496,41,Man
401287,OSSe4,v1,1920,-0.1600690823514069,932,1920,1080,5-16-2023,8-26-35,2,4,large,kitchen,misscaled,kettle.png,0,zi,bathroom,b1_zi.png,m,1,1131,4,1,kettle.png,b1_zi.png,164136,296496,41,Man
401287,OSSe4,v1,1920,-0.8944361985155677,932,1920,1080,5-16-2023,8-26-35,2,5,small,laundromat,misscaled,coins.png,0,zo,bathroom,b1_zo.png,m,1,891,5,5,coins.png,b1_zo.png,164136,296496,41,Man
401287,OSSe4,v1,1920,-0.23044593098380564,932,1920,1080,5-16-2023,8-26-35,2,6,large,laundromat,scaled,shorts.png,0,zo,classroom,c5_zo.png,m,1,1108,6,4,shorts.png,c5_zo.png,164136,296496,41,Man
401287,OSSe4,v1,1920,-0.5027737365613486,932,1920,1080,5-16-2023,8-26-35,2,7,small,kitchen,scaled,spoon.png,0,zi,bathroom,b2_zi.png,m,1,1019,7,2,spoon.png,b2_zi.png,164136,296496,41,Man
401287,OSSe4,v1,1920,-1.0443694847324172,932,1920,1080,5-16-2023,8-26-35,2,8,large,laundromat,misscaled,detergent.png,1,zi,laundromat,l5_zi.png,c,1,842,8,2,detergent.png,l5_zi.png,164136,296496,41,Man
401287,OSSe4,v1,1920,-0.9189151023877064,932,1920,1080,5-16-2023,8-26-35,2,9,small,classroom,scaled,paperclip.png,1,zi,classroom,c5_zi.png,c,1,883,9,5,paperclip.png,c5_zi.png,164136,296496,41,Man
401287,OSSe4,v1,1920,-1.4115530428144976,932,1920,1080,5-16-2023,8-26-35,2,10,small,kitchen,scaled,sponge.png,0,zi,classroom,c3_zi.png,m,1,722,10,3,sponge.png,c3_zi.png,164136,296496,41,Man
401287,OSSe4,v1,1920,-0.1845479862235456,932,1920,1080,5-16-2023,8-26-35,2,11,small,bathroom,misscaled,lipstick.png,1,zo,bathroom,b5_zo.png,c,1,1123,11,5,lipstick.png,b5_zo.png,164136,296496,41,Man
401287,OSSe4,v1,1920,-0.8209994868991516,932,1920,1080,5-16-2023,8-26-35,2,12,large,laundromat,misscaled,shirt.png,1,zi,laundromat,l4_zi.png,m,0,915,12,1,shirt.png,l4_zi.png,164136,296496,41,Man
401287,OSSe4,v1,1920,0.9904393996391117,932,1920,1080,5-16-2023,8-26-35,2,13,large,kitchen,scaled,toaster.png,1,zo,kitchen,k3_zo.png,c,1,1507,13,2,toaster.png,k3_zo.png,164136,296496,41,Man
401287,OSSe4,v1,1920,1.8227221312918271,932,1920,1080,5-16-2023,8-26-35,2,14,small,classroom,misscaled,eraser.png,0,zo,kitchen,k1_zo.png,m,1,1779,14,5,eraser.png,k1_zo.png,164136,296496,41,Man
401287,OSSe4,v1,1920,-0.16312894533542424,932,1920,1080,5-16-2023,8-26-35,2,15,large,classroom,misscaled,computer.png,0,zi,laundromat,l0_zi.png,m,1,1130,15,1,computer.png,l0_zi.png,164136,296496,41,Man
534247,OSSe4,v1,1588,0.8391921184190083,1395,1920,1080,5-15-2023,11-20-27,1,0,large,classroom,scaled,clipboard.png,1,zo,classroom,c1_zo.png,c,1,1348,0,2,clipboard.png,c1_zo.png,123556,181731,24,Woman
534247,OSSe4,v1,1588,1.0631031867591847,1395,1920,1080,5-15-2023,11-20-27,1,1,small,bathroom,misscaled,floss.png,0,zo,classroom,c5_zo.png,m,1,1407,1,3,floss.png,c5_zo.png,123556,181731,24,Woman
534247,OSSe4,v1,1588,0.12571278201302274,1395,1920,1080,5-15-2023,11-20-27,1,2,large,laundromat,scaled,shorts.png,0,zo,classroom,c3_zo.png,m,1,1160,2,1,shorts.png,c3_zo.png,123556,181731,24,Woman
534247,OSSe4,v1,1588,0.09155685633401278,1395,1920,1080,5-15-2023,11-20-27,1,3,small,classroom,misscaled,paperclip.png,1,zo,classroom,c0_zo.png,c,1,1151,3,3,paperclip.png,c0_zo.png,123556,181731,24,Woman
534247,OSSe4,v1,1588,-0.3980114117317965,1395,1920,1080,5-15-2023,11-20-27,1,4,small,classroom,misscaled,binderclip.png,0,zo,laundromat,l2_zo.png,m,1,1022,4,2,binderclip.png,l2_zo.png,123556,181731,24,Woman
534247,OSSe4,v1,1588,0.9378647926028149,1395,1920,1080,5-15-2023,11-20-27,1,5,small,classroom,scaled,eraser.png,0,zi,kitchen,k2_zi.png,m,1,1374,5,3,eraser.png,k2_zi.png,123556,181731,24,Woman
534247,OSSe4,v1,1588,-0.8040874170266926,1395,1920,1080,5-15-2023,11-20-27,1,6,large,kitchen,scaled,toaster.png,0,zo,classroom,c4_zo.png,m,1,915,6,1,toaster.png,c4_zo.png,123556,181731,24,Woman
534247,OSSe4,v1,1588,1.2149073008881177,1395,1920,1080,5-15-2023,11-20-27,1,7,small,bathroom,misscaled,lipstick.png,1,zo,bathroom,b0_zo.png,c,1,1447,7,4,lipstick.png,b0_zo.png,123556,181731,24,Woman
534247,OSSe4,v1,1588,-1.0355886910733156,1395,1920,1080,5-15-2023,11-20-27,1,8,large,kitchen,scaled,pot.png,1,zo,kitchen,k2_zo.png,c,1,854,8,2,pot.png,k2_zo.png,123556,181731,24,Woman
534247,OSSe4,v1,1588,-0.2462072976028634,1395,1920,1080,5-15-2023,11-20-27,1,9,large,laundromat,misscaled,detergent.png,0,zi,classroom,c2_zi.png,m,1,1062,9,1,detergent.png,c2_zi.png,123556,181731,24,Woman
534247,OSSe4,v1,1588,-0.5801763486865162,1395,1920,1080,5-15-2023,11-20-27,1,10,large,bathroom,misscaled,hairdryer.png,1,zi,bathroom,b1_zi.png,c,1,974,10,2,hairdryer.png,b1_zi.png,123556,181731,24,Woman
534247,OSSe4,v1,1588,-1.3733528450101917,1395,1920,1080,5-15-2023,11-20-27,1,11,large,laundromat,misscaled,shirt.png,0,zi,classroom,c5_zi.png,m,1,765,11,1,shirt.png,c5_zi.png,123556,181731,24,Woman
534247,OSSe4,v1,1588,1.632368614742684,1395,1920,1080,5-15-2023,11-20-27,1,12,small,bathroom,scaled,nailclipper.png,1,zi,bathroom,b3_zi.png,m,0,1557,12,3,nailclipper.png,b3_zi.png,123556,181731,24,Woman
534247,OSSe4,v1,1588,-1.0773348224587722,1395,1920,1080,5-15-2023,11-20-27,1,13,large,kitchen,misscaled,kettle.png,1,zi,kitchen,k5_zi.png,c,1,843,13,1,kettle.png,k5_zi.png,123556,181731,24,Woman
