subjID,experimentName,versionName,sequenceName,Z-Scored RT,windowWidth,windowHeight,screenWidth,screenHeight,startDate,startTime,pracTries,trialNum,scene,image_name,object,side,objectCategory,objSceneSemCong,scale,image,presentationSize,keyPress,accuracy,RT,ratingTrialNum,rating,thisRatingTrialFile,experimentTime,totalTime,age,gender
871149,OSSe5,v2,jsons/s22.json,-0.47951041906752817,1440,815,1440,900,9-2-2023,11-25-1,1,0,k5,k5_small_pot,pot,R,kitchen,1,misscaled,k5_small_pot_R.png,small,m,1,710,0,2,k5_small_pot_R.png,217736,293277,28.0,Man
871149,OSSe5,v2,jsons/s22.json,-0.0026652928801128065,1440,815,1440,900,9-2-2023,11-25-1,1,1,c1,c1_large_flashdrive,flashdrive,R,classroom,1,misscaled,c1_large_flashdrive_R.png,large,m,1,792,1,1,c1_large_flashdrive_R.png,217736,293277,28.0,Man
871149,OSSe5,v2,jsons/s22.json,-0.6307052151757331,1440,815,1440,900,9-2-2023,11-25-1,1,2,k0,k0_small_eraser,eraser,R,classroom,0,scaled,k0_small_eraser_R.png,small,m,1,684,2,3,k0_small_eraser_R.png,217736,293277,28.0,Man
871149,OSSe5,v2,jsons/s22.json,-0.3341308074250235,1440,815,1440,900,9-2-2023,11-25-1,1,3,c6,c6_large_saltshaker,saltshaker,L,kitchen,0,misscaled,c6_large_saltshaker_L.png,large,c,1,735,3,1,c6_large_saltshaker_L.png,217736,293277,28.0,Man
871149,OSSe5,v2,jsons/s22.json,-1.0726592345689474,1440,815,1440,900,9-2-2023,11-25-1,1,4,c10,c10_small_binderclip,binderclip,R,classroom,1,scaled,c10_small_binderclip_R.png,small,m,1,608,4,3,c10_small_binderclip_R.png,217736,293277,28.0,Man
871149,OSSe5,v2,jsons/s22.json,0.3753216973903994,1440,815,1440,900,9-2-2023,11-25-1,1,5,k1,k1_small_flashdrive,flashdrive,L,classroom,0,scaled,k1_small_flashdrive_L.png,small,c,1,857,5,3,k1_small_flashdrive_L.png,217736,293277,28.0,Man
871149,OSSe5,v2,jsons/s22.json,-1.3576032733882566,1440,815,1440,900,9-2-2023,11-25-1,1,6,c4,c4_large_notebook,notebook,R,classroom,1,scaled,c4_large_notebook_R.png,large,m,1,559,6,3,c4_large_notebook_R.png,217736,293277,28.0,Man
871149,OSSe5,v2,jsons/s22.json,-1.4273854869766587,1440,815,1440,900,9-2-2023,11-25-1,1,7,c0,c0_large_eraser,eraser,L,classroom,1,misscaled,c0_large_eraser_L.png,large,c,1,547,7,1,c0_large_eraser_L.png,217736,293277,28.0,Man
871149,OSSe5,v2,jsons/s22.json,0.5962987070870065,1440,815,1440,900,9-2-2023,11-25-1,1,8,k6,k6_small_saltshaker,saltshaker,R,kitchen,1,scaled,k6_small_saltshaker_R.png,small,m,1,895,8,4,k6_small_saltshaker_R.png,217736,293277,28.0,Man
871149,OSSe5,v2,jsons/s22.json,0.8463516391121146,1440,815,1440,900,9-2-2023,11-25-1,1,9,c8,c8_large_spoon,spoon,R,kitchen,0,misscaled,c8_large_spoon_R.png,large,m,1,938,9,1,c8_large_spoon_R.png,217736,293277,28.0,Man
871149,OSSe5,v2,jsons/s22.json,-0.5841837394501316,1440,815,1440,900,9-2-2023,11-25-1,1,10,c7,c7_large_sponge,sponge,L,kitchen,0,misscaled,c7_large_sponge_L.png,large,c,1,692,10,2,c7_large_sponge_L.png,217736,293277,28.0,Man
871149,OSSe5,v2,jsons/s22.json,-0.2469030404395207,1440,815,1440,900,9-2-2023,11-25-1,1,11,c11,c11_small_clipboard,clipboard,L,classroom,1,misscaled,c11_small_clipboard_L.png,small,c,1,750,11,4,c11_small_clipboard_L.png,217736,293277,28.0,Man
871149,OSSe5,v2,jsons/s22.json,-0.9970618365148449,1440,815,1440,900,9-2-2023,11-25-1,1,12,k7,k7_small_sponge,sponge,L,kitchen,1,scaled,k7_small_sponge_L.png,small,c,1,621,12,3,k7_small_sponge_L.png,217736,293277,28.0,Man
871149,OSSe5,v2,jsons/s22.json,2.218735173017359,1440,815,1440,900,9-2-2023,11-25-1,1,13,k2,k2_small_kettle,kettle,L,kitchen,1,misscaled,k2_small_kettle_L.png,small,c,1,1174,13,3,k2_small_kettle_L.png,217736,293277,28.0,Man
871149,OSSe5,v2,jsons/s22.json,0.7881997944551127,1440,815,1440,900,9-2-2023,11-25-1,1,14,k9,k9_small_toaster,toaster,R,kitchen,1,misscaled,k9_small_toaster_R.png,small,m,1,928,14,2,k9_small_toaster_R.png,217736,293277,28.0,Man
871149,OSSe5,v2,jsons/s22.json,0.9335794060976174,1440,815,1440,900,9-2-2023,11-25-1,1,15,k10,k10_large_binderclip,binderclip,R,classroom,0,misscaled,k10_large_binderclip_R.png,large,m,1,953,15,1,k10_large_binderclip_R.png,217736,293277,28.0,Man
871149,OSSe5,v2,jsons/s22.json,-0.2527182249052209,1440,815,1440,900,9-2-2023,11-25-1,1,16,c3,c3_large_laptop,laptop,L,classroom,1,scaled,c3_large_laptop_L.png,large,c,1,749,16,4,c3_large_laptop_L.png,217736,293277,28.0,Man
871149,OSSe5,v2,jsons/s22.json,0.7998301633865131,1440,815,1440,900,9-2-2023,11-25-1,1,17,k3,k3_small_laptop,laptop,R,classroom,0,misscaled,k3_small_laptop_R.png,small,m,1,930,17,1,k3_small_laptop_R.png,217736,293277,28.0,Man
871149,OSSe5,v2,jsons/s22.json,0.8172757167836137,1440,815,1440,900,9-2-2023,11-25-1,1,18,k11,k11_large_clipboard,clipboard,L,classroom,0,scaled,k11_large_clipboard_L.png,large,c,1,933,18,3,k11_large_clipboard_L.png,217736,293277,28.0,Man
871149,OSSe5,v2,jsons/s22.json,-1.0842896035003478,1440,815,1440,900,9-2-2023,11-25-1,1,19,k8,k8_small_spoon,spoon,L,kitchen,1,scaled,k8_small_spoon_L.png,small,c,1,606,19,4,k8_small_spoon_L.png,217736,293277,28.0,Man
871149,OSSe5,v2,jsons/s22.json,0.8754275614406155,1440,815,1440,900,9-2-2023,11-25-1,1,20,c9,c9_large_toaster,toaster,R,kitchen,0,scaled,c9_large_toaster_R.png,large,m,1,943,20,2,c9_large_toaster_R.png,217736,293277,28.0,Man
871149,OSSe5,v2,jsons/s22.json,1.8756392895410479,1440,815,1440,900,9-2-2023,11-25-1,1,21,k4,k4_small_notebook,notebook,R,classroom,0,misscaled,k4_small_notebook_R.png,small,m,1,1115,21,4,k4_small_notebook_R.png,217736,293277,28.0,Man
871149,OSSe5,v2,jsons/s22.json,-0.8458670404066401,1440,815,1440,900,9-2-2023,11-25-1,1,22,c5,c5_large_pot,pot,L,kitchen,0,scaled,c5_large_pot_L.png,large,c,1,647,22,3,c5_large_pot_L.png,217736,293277,28.0,Man
871149,OSSe5,v2,jsons/s22.json,-0.8109759336124389,1440,815,1440,900,9-2-2023,11-25-1,1,23,c2,c2_large_kettle,kettle,L,kitchen,0,scaled,c2_large_kettle_L.png,large,c,1,653,23,3,c2_large_kettle_L.png,217736,293277,28.0,Man
475660,OSSe5,v2,jsons/s13.json,-0.2833154352996027,1364,619,1364,768,9-3-2023,10-17-36,1,0,k10,k10_large_sponge,sponge,R,kitchen,1,misscaled,k10_large_sponge_R.png,large,m,1,1557,0,1,k10_large_sponge_R.png,322737,399618,1998.0,Woman
475660,OSSe5,v2,jsons/s13.json,-0.8941314954339927,1364,619,1364,768,9-3-2023,10-17-36,1,1,c10,c10_small_sponge,sponge,L,kitchen,0,scaled,c10_small_sponge_L.png,small,c,1,1269,1,3,c10_small_sponge_L.png,322737,399618,1998.0,Woman
475660,OSSe5,v2,jsons/s13.json,-0.7117350330327513,1364,619,1364,768,9-3-2023,10-17-36,1,2,c0,c0_large_toaster,toaster,R,kitchen,0,scaled,c0_large_toaster_R.png,large,m,1,1355,2,3,c0_large_toaster_R.png,322737,399618,1998.0,Woman
475660,OSSe5,v2,jsons/s13.json,0.007246371083770414,1364,619,1364,768,9-3-2023,10-17-36,1,3,c5,c5_small_kettle,kettle,L,kitchen,0,misscaled,c5_small_kettle_L.png,small,c,1,1694,3,2,c5_small_kettle_L.png,322737,399618,1998.0,Woman
475660,OSSe5,v2,jsons/s13.json,-0.49540434506848813,1364,619,1364,768,9-3-2023,10-17-36,1,4,k0,k0_small_toaster,toaster,L,kitchen,1,misscaled,k0_small_toaster_L.png,small,c,1,1457,4,3,k0_small_toaster_L.png,322737,399618,1998.0,Woman
475660,OSSe5,v2,jsons/s13.json,-0.671438140176663,1364,619,1364,768,9-3-2023,10-17-36,1,5,k5,k5_large_kettle,kettle,R,kitchen,1,scaled,k5_large_kettle_R.png,large,m,1,1374,5,3,k5_large_kettle_R.png,322737,399618,1998.0,Woman
475660,OSSe5,v2,jsons/s13.json,-0.10303986199605002,1364,619,1364,768,9-3-2023,10-17-36,1,6,c6,c6_small_laptop,laptop,L,classroom,1,misscaled,c6_small_laptop_L.png,small,c,1,1642,6,3,c6_small_laptop_L.png,322737,399618,1998.0,Woman
475660,OSSe5,v2,jsons/s13.json,-0.832625711601016,1364,619,1364,768,9-3-2023,10-17-36,1,7,k6,k6_large_laptop,laptop,R,classroom,0,scaled,k6_large_laptop_R.png,large,m,1,1298,7,4,k6_large_laptop_R.png,322737,399618,1998.0,Woman
475660,OSSe5,v2,jsons/s13.json,-0.7202185894235067,1364,619,1364,768,9-3-2023,10-17-36,1,8,k9,k9_large_saltshaker,saltshaker,L,kitchen,1,misscaled,k9_large_saltshaker_L.png,large,c,1,1351,8,1,k9_large_saltshaker_L.png,322737,399618,1998.0,Woman
475660,OSSe5,v2,jsons/s13.json,-1.036231064979146,1364,619,1364,768,9-3-2023,10-17-36,1,9,k1,k1_large_binderclip,binderclip,R,classroom,0,misscaled,k1_large_binderclip_R.png,large,m,1,1202,9,1,k1_large_binderclip_R.png,322737,399618,1998.0,Woman
475660,OSSe5,v2,jsons/s13.json,-0.8665599371640377,1364,619,1364,768,9-3-2023,10-17-36,1,10,c3,c3_small_eraser,eraser,L,classroom,1,scaled,c3_small_eraser_L.png,small,c,1,1282,10,3,c3_small_eraser_L.png,322737,399618,1998.0,Woman
475660,OSSe5,v2,jsons/s13.json,-0.7626363713772838,1364,619,1364,768,9-3-2023,10-17-36,1,11,c1,c1_small_binderclip,binderclip,R,classroom,1,scaled,c1_small_binderclip_R.png,small,m,1,1331,11,3,c1_small_binderclip_R.png,322737,399618,1998.0,Woman
475660,OSSe5,v2,jsons/s13.json,2.724105305223193,1364,619,1364,768,9-3-2023,10-17-36,1,12,c4,c4_small_flashdrive,flashdrive,R,classroom,1,scaled,c4_small_flashdrive_R.png,small,m,1,2975,12,3,c4_small_flashdrive_R.png,322737,399618,1998.0,Woman
475660,OSSe5,v2,jsons/s13.json,0.22145616995034473,1364,619,1364,768,9-3-2023,10-17-36,1,13,c11,c11_small_spoon,spoon,L,kitchen,0,scaled,c11_small_spoon_L.png,small,c,1,1795,13,3,c11_small_spoon_L.png,322737,399618,1998.0,Woman
475660,OSSe5,v2,jsons/s13.json,0.0920819349913246,1364,619,1364,768,9-3-2023,10-17-36,1,14,c2,c2_small_clipboard,clipboard,L,classroom,1,misscaled,c2_small_clipboard_L.png,small,c,1,1734,14,2,c2_small_clipboard_L.png,322737,399618,1998.0,Woman
475660,OSSe5,v2,jsons/s13.json,1.8460572187800073,1364,619,1364,768,9-3-2023,10-17-36,1,15,k2,k2_large_clipboard,clipboard,R,classroom,0,scaled,k2_large_clipboard_R.png,large,m,1,2561,15,3,k2_large_clipboard_R.png,322737,399618,1998.0,Woman
475660,OSSe5,v2,jsons/s13.json,0.40809441054696394,1364,619,1364,768,9-3-2023,10-17-36,1,16,c8,c8_small_pot,pot,R,kitchen,0,misscaled,c8_small_pot_R.png,small,m,1,1883,16,3,c8_small_pot_R.png,322737,399618,1998.0,Woman
475660,OSSe5,v2,jsons/s13.json,0.5417104237013618,1364,619,1364,768,9-3-2023,10-17-36,1,17,k7,k7_large_notebook,notebook,R,classroom,0,scaled,k7_large_notebook_R.png,large,m,1,1946,17,3,k7_large_notebook_R.png,322737,399618,1998.0,Woman
475660,OSSe5,v2,jsons/s13.json,1.3582527263115707,1364,619,1364,768,9-3-2023,10-17-36,1,18,c7,c7_small_notebook,notebook,L,classroom,1,misscaled,c7_small_notebook_L.png,small,c,1,2331,18,3,c7_small_notebook_L.png,322737,399618,1998.0,Woman
475660,OSSe5,v2,jsons/s13.json,0.28932462107638807,1364,619,1364,768,9-3-2023,10-17-36,1,19,c9,c9_small_saltshaker,saltshaker,L,kitchen,0,scaled,c9_small_saltshaker_L.png,small,c,1,1827,19,4,c9_small_saltshaker_L.png,322737,399618,1998.0,Woman
475660,OSSe5,v2,jsons/s13.json,1.706078538332543,1364,619,1364,768,9-3-2023,10-17-36,1,20,k4,k4_large_flashdrive,flashdrive,R,classroom,0,misscaled,k4_large_flashdrive_R.png,large,m,1,2495,20,1,k4_large_flashdrive_R.png,322737,399618,1998.0,Woman
475660,OSSe5,v2,jsons/s13.json,-0.6459874710043968,1364,619,1364,768,9-3-2023,10-17-36,1,21,k3,k3_large_eraser,eraser,L,classroom,0,misscaled,k3_large_eraser_L.png,large,c,1,1386,21,1,k3_large_eraser_L.png,322737,399618,1998.0,Woman
475660,OSSe5,v2,jsons/s13.json,-0.5866025762691088,1364,619,1364,768,9-3-2023,10-17-36,1,22,k8,k8_large_pot,pot,L,kitchen,1,scaled,k8_large_pot_L.png,large,c,1,1414,22,3,k8_large_pot_L.png,322737,399618,1998.0,Woman
475660,OSSe5,v2,jsons/s13.json,-0.58448168717142,1364,619,1364,768,9-3-2023,10-17-36,1,23,k11,k11_large_spoon,spoon,R,kitchen,1,misscaled,k11_large_spoon_R.png,large,m,1,1415,23,1,k11_large_spoon_R.png,322737,399618,1998.0,Woman
625308,OSSe5,v2,jsons/s14.json,1.5550589916596873,1263,603,1280,720,9-2-2023,16-7-4,1,0,k10,k10_large_saltshaker,saltshaker,L,kitchen,1,misscaled,k10_large_saltshaker_L.png,large,m,0,2794,0,1,k10_large_saltshaker_L.png,322478,382440,35.0,Man
625308,OSSe5,v2,jsons/s14.json,-0.8767562424353277,1263,603,1280,720,9-2-2023,16-7-4,1,1,k9,k9_large_pot,pot,R,kitchen,1,scaled,k9_large_pot_R.png,large,m,1,1394,1,4,k9_large_pot_R.png,322478,382440,35.0,Man
625308,OSSe5,v2,jsons/s14.json,-0.9740288517991283,1263,603,1280,720,9-2-2023,16-7-4,1,2,k1,k1_small_toaster,toaster,L,kitchen,1,misscaled,k1_small_toaster_L.png,small,c,1,1338,2,1,k1_small_toaster_L.png,322478,382440,35.0,Man
625308,OSSe5,v2,jsons/s14.json,1.0374297489737483,1263,603,1280,720,9-2-2023,16-7-4,1,3,c1,c1_large_toaster,toaster,L,kitchen,0,scaled,c1_large_toaster_L.png,large,c,1,2496,3,4,c1_large_toaster_L.png,322478,382440,35.0,Man
625308,OSSe5,v2,jsons/s14.json,-0.24622129245212027,1263,603,1280,720,9-2-2023,16-7-4,1,4,k11,k11_large_sponge,sponge,L,kitchen,1,misscaled,k11_large_sponge_L.png,large,c,1,1757,4,1,k11_large_sponge_L.png,322478,382440,35.0,Man
625308,OSSe5,v2,jsons/s14.json,-0.1680558027847805,1263,603,1280,720,9-2-2023,16-7-4,1,5,k4,k4_large_eraser,eraser,R,classroom,0,misscaled,k4_large_eraser_R.png,large,m,1,1802,5,1,k4_large_eraser_R.png,322478,382440,35.0,Man
625308,OSSe5,v2,jsons/s14.json,0.05428159004676372,1263,603,1280,720,9-2-2023,16-7-4,1,6,c11,c11_small_sponge,sponge,R,kitchen,0,scaled,c11_small_sponge_R.png,small,m,1,1930,6,4,c11_small_sponge_R.png,322478,382440,35.0,Man
625308,OSSe5,v2,jsons/s14.json,-0.9722918409176319,1263,603,1280,720,9-2-2023,16-7-4,1,7,k5,k5_large_flashdrive,flashdrive,R,classroom,0,misscaled,k5_large_flashdrive_R.png,large,m,1,1339,7,2,k5_large_flashdrive_R.png,322478,382440,35.0,Man
625308,OSSe5,v2,jsons/s14.json,-0.696107110759698,1263,603,1280,720,9-2-2023,16-7-4,1,8,c2,c2_small_binderclip,binderclip,L,classroom,1,scaled,c2_small_binderclip_L.png,small,c,1,1498,8,4,c2_small_binderclip_L.png,322478,382440,35.0,Man
625308,OSSe5,v2,jsons/s14.json,0.04038550299479221,1263,603,1280,720,9-2-2023,16-7-4,1,9,k0,k0_small_spoon,spoon,R,kitchen,1,scaled,k0_small_spoon_R.png,small,m,1,1922,9,4,k0_small_spoon_R.png,322478,382440,35.0,Man
625308,OSSe5,v2,jsons/s14.json,-0.015198845213093844,1263,603,1280,720,9-2-2023,16-7-4,1,10,c8,c8_small_notebook,notebook,L,classroom,1,misscaled,c8_small_notebook_L.png,small,c,1,1890,10,4,c8_small_notebook_L.png,322478,382440,35.0,Man
625308,OSSe5,v2,jsons/s14.json,-0.44076651117972143,1263,603,1280,720,9-2-2023,16-7-4,1,11,k3,k3_large_clipboard,clipboard,L,classroom,0,scaled,k3_large_clipboard_L.png,large,c,1,1645,11,4,k3_large_clipboard_L.png,322478,382440,35.0,Man
625308,OSSe5,v2,jsons/s14.json,0.12202501442512485,1263,603,1280,720,9-2-2023,16-7-4,1,12,c7,c7_small_laptop,laptop,R,classroom,1,misscaled,c7_small_laptop_R.png,small,m,1,1969,12,1,c7_small_laptop_R.png,322478,382440,35.0,Man
625308,OSSe5,v2,jsons/s14.json,0.2210346346704219,1263,603,1280,720,9-2-2023,16-7-4,1,13,k2,k2_large_binderclip,binderclip,L,classroom,0,misscaled,k2_large_binderclip_L.png,large,c,1,2026,13,2,k2_large_binderclip_L.png,322478,382440,35.0,Man
625308,OSSe5,v2,jsons/s14.json,0.889783824046551,1263,603,1280,720,9-2-2023,16-7-4,1,14,c3,c3_small_clipboard,clipboard,R,classroom,1,misscaled,c3_small_clipboard_R.png,small,m,1,2411,14,2,c3_small_clipboard_R.png,322478,382440,35.0,Man
625308,OSSe5,v2,jsons/s14.json,-1.0139801020735464,1263,603,1280,720,9-2-2023,16-7-4,1,15,c0,c0_large_spoon,spoon,R,kitchen,0,misscaled,c0_large_spoon_R.png,large,m,1,1315,15,1,c0_large_spoon_R.png,322478,382440,35.0,Man
625308,OSSe5,v2,jsons/s14.json,-0.3764971085643532,1263,603,1280,720,9-2-2023,16-7-4,1,16,c10,c10_small_saltshaker,saltshaker,L,kitchen,0,scaled,c10_small_saltshaker_L.png,small,c,1,1682,16,4,c10_small_saltshaker_L.png,322478,382440,35.0,Man
625308,OSSe5,v2,jsons/s14.json,-0.7864316765975129,1263,603,1280,720,9-2-2023,16-7-4,1,17,k7,k7_large_laptop,laptop,L,classroom,0,scaled,k7_large_laptop_L.png,large,c,1,1446,17,3,k7_large_laptop_L.png,322478,382440,35.0,Man
625308,OSSe5,v2,jsons/s14.json,3.2868588405116372,1263,603,1280,720,9-2-2023,16-7-4,1,18,c5,c5_small_flashdrive,flashdrive,R,classroom,1,scaled,c5_small_flashdrive_R.png,small,m,1,3791,18,3,c5_small_flashdrive_R.png,322478,382440,35.0,Man
625308,OSSe5,v2,jsons/s14.json,0.4207908860425124,1263,603,1280,720,9-2-2023,16-7-4,1,19,c4,c4_small_eraser,eraser,R,classroom,1,scaled,c4_small_eraser_R.png,small,m,1,2141,19,2,c4_small_eraser_R.png,322478,382440,35.0,Man
625308,OSSe5,v2,jsons/s14.json,-1.0313502108885109,1263,603,1280,720,9-2-2023,16-7-4,1,20,k8,k8_large_notebook,notebook,R,classroom,0,scaled,k8_large_notebook_R.png,large,m,1,1305,20,2,k8_large_notebook_R.png,322478,382440,35.0,Man
625308,OSSe5,v2,jsons/s14.json,-0.7933797201234987,1263,603,1280,720,9-2-2023,16-7-4,1,21,c9,c9_small_pot,pot,R,kitchen,0,misscaled,c9_small_pot_R.png,small,m,1,1442,21,1,c9_small_pot_R.png,322478,382440,35.0,Man
625308,OSSe5,v2,jsons/s14.json,-0.09857536752492292,1263,603,1280,720,9-2-2023,16-7-4,1,22,k6,k6_large_kettle,kettle,L,kitchen,1,scaled,k6_large_kettle_L.png,large,c,1,1842,22,3,k6_large_kettle_L.png,322478,382440,35.0,Man
625308,OSSe5,v2,jsons/s14.json,0.861991649942608,1263,603,1280,720,9-2-2023,16-7-4,1,23,c6,c6_small_kettle,kettle,L,kitchen,0,misscaled,c6_small_kettle_L.png,small,c,1,2395,23,1,c6_small_kettle_L.png,322478,382440,35.0,Man
900160,OSSe5,v2,jsons/s3.json,-0.7650872346241231,1364,651,1364,768,9-2-2023,10-54-6,1,0,c10,c10_large_pot,pot,L,kitchen,0,scaled,c10_large_pot_L.png,large,c,1,1217,0,4,c10_large_pot_L.png,234080,2016311,24.0,Woman
900160,OSSe5,v2,jsons/s3.json,0.3148176252414536,1364,651,1364,768,9-2-2023,10-54-6,1,1,k3,k3_small_binderclip,binderclip,L,classroom,0,scaled,k3_small_binderclip_L.png,small,c,1,1508,1,3,k3_small_binderclip_L.png,234080,2016311,24.0,Woman
900160,OSSe5,v2,jsons/s3.json,-0.1453480195122629,1364,651,1364,768,9-2-2023,10-54-6,1,2,c7,c7_large_kettle,kettle,L,kitchen,0,scaled,c7_large_kettle_L.png,large,c,1,1384,2,4,c7_large_kettle_L.png,234080,2016311,24.0,Woman
900160,OSSe5,v2,jsons/s3.json,-0.9914590437368385,1364,651,1364,768,9-2-2023,10-54-6,1,3,k5,k5_small_eraser,eraser,R,classroom,0,scaled,k5_small_eraser_R.png,small,m,1,1156,3,2,k5_small_eraser_R.png,234080,2016311,24.0,Woman
900160,OSSe5,v2,jsons/s3.json,0.8343594822214562,1364,651,1364,768,9-2-2023,10-54-6,1,4,c3,c3_large_binderclip,binderclip,R,classroom,1,misscaled,c3_large_binderclip_R.png,large,m,1,1648,4,1,c3_large_binderclip_R.png,234080,2016311,24.0,Woman
900160,OSSe5,v2,jsons/s3.json,-1.1139224814535533,1364,651,1364,768,9-2-2023,10-54-6,1,5,c5,c5_large_eraser,eraser,R,classroom,1,misscaled,c5_large_eraser_R.png,large,m,1,1123,5,1,c5_large_eraser_R.png,234080,2016311,24.0,Woman
900160,OSSe5,v2,jsons/s3.json,1.9068423155587473,1364,651,1364,768,9-2-2023,10-54-6,1,6,k4,k4_small_clipboard,clipboard,L,classroom,0,misscaled,k4_small_clipboard_L.png,small,c,1,1937,6,4,k4_small_clipboard_L.png,234080,2016311,24.0,Woman
900160,OSSe5,v2,jsons/s3.json,-0.7168440621902658,1364,651,1364,768,9-2-2023,10-54-6,1,7,c2,c2_small_toaster,toaster,R,kitchen,0,misscaled,c2_small_toaster_R.png,small,m,1,1230,7,1,c2_small_toaster_R.png,234080,2016311,24.0,Woman
900160,OSSe5,v2,jsons/s3.json,-0.10823788687083415,1364,651,1364,768,9-2-2023,10-54-6,1,8,k10,k10_small_pot,pot,L,kitchen,1,misscaled,k10_small_pot_L.png,small,c,1,1394,8,1,k10_small_pot_L.png,234080,2016311,24.0,Woman
900160,OSSe5,v2,jsons/s3.json,0.6376757792218838,1364,651,1364,768,9-2-2023,10-54-6,1,9,k2,k2_large_toaster,toaster,L,kitchen,1,scaled,k2_large_toaster_L.png,large,c,1,1595,9,3,k2_large_toaster_L.png,234080,2016311,24.0,Woman
900160,OSSe5,v2,jsons/s3.json,-1.8524141210179856,1364,651,1364,768,9-2-2023,10-54-6,1,10,k1,k1_large_spoon,spoon,L,kitchen,1,misscaled,k1_large_spoon_L.png,large,c,1,924,10,1,k1_large_spoon_L.png,234080,2016311,24.0,Woman
900160,OSSe5,v2,jsons/s3.json,-0.6277797438508367,1364,651,1364,768,9-2-2023,10-54-6,1,11,k0,k0_large_sponge,sponge,R,kitchen,1,misscaled,k0_large_sponge_R.png,large,m,1,1254,11,1,k0_large_sponge_R.png,234080,2016311,24.0,Woman
900160,OSSe5,v2,jsons/s3.json,-0.3383207092476924,1364,651,1364,768,9-2-2023,10-54-6,1,12,c4,c4_large_clipboard,clipboard,R,classroom,1,scaled,c4_large_clipboard_R.png,large,m,1,1332,12,1,c4_large_clipboard_R.png,234080,2016311,24.0,Woman
900160,OSSe5,v2,jsons/s3.json,-0.3902748949456927,1364,651,1364,768,9-2-2023,10-54-6,1,13,k8,k8_small_laptop,laptop,L,classroom,0,misscaled,k8_small_laptop_L.png,small,c,1,1318,13,1,k8_small_laptop_L.png,234080,2016311,24.0,Woman
900160,OSSe5,v2,jsons/s3.json,0.8120934026365989,1364,651,1364,768,9-2-2023,10-54-6,1,14,c11,c11_large_saltshaker,saltshaker,L,kitchen,0,misscaled,c11_large_saltshaker_L.png,large,c,1,1642,14,1,c11_large_saltshaker_L.png,234080,2016311,24.0,Woman
900160,OSSe5,v2,jsons/s3.json,1.0273321719568858,1364,651,1364,768,9-2-2023,10-54-6,1,15,k7,k7_small_kettle,kettle,R,kitchen,1,misscaled,k7_small_kettle_R.png,small,m,1,1700,15,1,k7_small_kettle_R.png,234080,2016311,24.0,Woman
900160,OSSe5,v2,jsons/s3.json,2.329897827671035,1364,651,1364,768,9-2-2023,10-54-6,1,16,c6,c6_large_flashdrive,flashdrive,L,classroom,1,misscaled,c6_large_flashdrive_L.png,large,c,1,2051,16,1,c6_large_flashdrive_L.png,234080,2016311,24.0,Woman
900160,OSSe5,v2,jsons/s3.json,-0.8504405396994092,1364,651,1364,768,9-2-2023,10-54-6,1,17,c1,c1_small_spoon,spoon,R,kitchen,0,scaled,c1_small_spoon_R.png,small,m,1,1194,17,1,c1_small_spoon_R.png,234080,2016311,24.0,Woman
900160,OSSe5,v2,jsons/s3.json,-0.31605462966283515,1364,651,1364,768,9-2-2023,10-54-6,1,18,k11,k11_small_saltshaker,saltshaker,R,kitchen,1,scaled,k11_small_saltshaker_R.png,small,m,1,1338,18,1,k11_small_saltshaker_R.png,234080,2016311,24.0,Woman
900160,OSSe5,v2,jsons/s3.json,0.3148176252414536,1364,651,1364,768,9-2-2023,10-54-6,1,19,c9,c9_large_notebook,notebook,L,classroom,1,scaled,c9_large_notebook_L.png,large,c,1,1508,19,4,c9_large_notebook_L.png,234080,2016311,24.0,Woman
900160,OSSe5,v2,jsons/s3.json,1.2982361402393157,1364,651,1364,768,9-2-2023,10-54-6,1,20,k6,k6_small_flashdrive,flashdrive,R,classroom,0,scaled,k6_small_flashdrive_R.png,small,m,1,1773,20,3,k6_small_flashdrive_R.png,234080,2016311,24.0,Woman
900160,OSSe5,v2,jsons/s3.json,0.10700088244945262,1364,651,1364,768,9-2-2023,10-54-6,1,21,c8,c8_large_laptop,laptop,R,classroom,1,scaled,c8_large_laptop_R.png,large,m,1,1452,21,4,c8_large_laptop_R.png,234080,2016311,24.0,Woman
900160,OSSe5,v2,jsons/s3.json,-0.590669611209408,1364,651,1364,768,9-2-2023,10-54-6,1,22,c0,c0_small_sponge,sponge,R,kitchen,0,scaled,c0_small_sponge_R.png,small,m,1,1264,22,1,c0_small_sponge_R.png,234080,2016311,24.0,Woman
900160,OSSe5,v2,jsons/s3.json,-0.7762202744165517,1364,651,1364,768,9-2-2023,10-54-6,1,23,k9,k9_small_notebook,notebook,L,classroom,0,misscaled,k9_small_notebook_L.png,small,c,1,1214,23,3,k9_small_notebook_L.png,234080,2016311,24.0,Woman
149238,OSSe5,v2,jsons/s19.json,-0.7193818620489529,1364,651,1364,768,9-2-2023,10-6-36,1,0,k11,k11_large_kettle,kettle,R,kitchen,1,scaled,k11_large_kettle_R.png,large,m,1,1305,0,4,k11_large_kettle_R.png,385719,429391,24.0,Woman
149238,OSSe5,v2,jsons/s19.json,-0.2761536437860942,1364,651,1364,768,9-2-2023,10-6-36,1,1,k4,k4_small_sponge,sponge,L,kitchen,1,scaled,k4_small_sponge_L.png,small,c,1,1476,1,2,k4_small_sponge_L.png,385719,429391,24.0,Woman
149238,OSSe5,v2,jsons/s19.json,0.0763553485165303,1364,651,1364,768,9-2-2023,10-6-36,1,2,c11,c11_small_kettle,kettle,R,kitchen,0,misscaled,c11_small_kettle_R.png,small,m,1,1612,2,1,c11_small_kettle_R.png,385719,429391,24.0,Woman
149238,OSSe5,v2,jsons/s19.json,-1.3466405101168581,1364,651,1364,768,9-2-2023,10-6-36,1,3,k1,k1_small_notebook,notebook,L,classroom,0,misscaled,k1_small_notebook_L.png,small,c,1,1063,3,1,k1_small_notebook_L.png,385719,429391,24.0,Woman
149238,OSSe5,v2,jsons/s19.json,-0.7323417514718435,1364,651,1364,768,9-2-2023,10-6-36,1,4,c4,c4_large_sponge,sponge,L,kitchen,0,misscaled,c4_large_sponge_L.png,large,c,1,1300,4,1,c4_large_sponge_L.png,385719,429391,24.0,Woman
149238,OSSe5,v2,jsons/s19.json,-0.3616889139771722,1364,651,1364,768,9-2-2023,10-6-36,1,5,c3,c3_large_saltshaker,saltshaker,R,kitchen,0,misscaled,c3_large_saltshaker_R.png,large,m,1,1443,5,1,c3_large_saltshaker_R.png,385719,429391,24.0,Woman
149238,OSSe5,v2,jsons/s19.json,-0.0014039880208133455,1364,651,1364,768,9-2-2023,10-6-36,1,6,c6,c6_large_toaster,toaster,R,kitchen,0,scaled,c6_large_toaster_R.png,large,m,1,1582,6,4,c6_large_toaster_R.png,385719,429391,24.0,Woman
149238,OSSe5,v2,jsons/s19.json,0.7191658638919043,1364,651,1364,768,9-2-2023,10-6-36,1,7,c9,c9_small_eraser,eraser,L,classroom,1,scaled,c9_small_eraser_L.png,small,m,0,1860,7,3,c9_small_eraser_L.png,385719,429391,24.0,Woman
149238,OSSe5,v2,jsons/s19.json,-0.7764053755096716,1364,651,1364,768,9-2-2023,10-6-36,1,8,k8,k8_large_clipboard,clipboard,L,classroom,0,scaled,k8_large_clipboard_L.png,large,c,1,1283,8,3,k8_large_clipboard_L.png,385719,429391,24.0,Woman
149238,OSSe5,v2,jsons/s19.json,-0.022139811097438313,1364,651,1364,768,9-2-2023,10-6-36,1,9,k10,k10_large_flashdrive,flashdrive,R,classroom,0,misscaled,k10_large_flashdrive_R.png,large,m,1,1574,9,1,k10_large_flashdrive_R.png,385719,429391,24.0,Woman
149238,OSSe5,v2,jsons/s19.json,-0.8101010880091871,1364,651,1364,768,9-2-2023,10-6-36,1,10,c2,c2_large_pot,pot,R,kitchen,0,scaled,c2_large_pot_R.png,large,m,1,1270,10,4,c2_large_pot_R.png,385719,429391,24.0,Woman
149238,OSSe5,v2,jsons/s19.json,-0.6882781274340155,1364,651,1364,768,9-2-2023,10-6-36,1,11,k6,k6_small_toaster,toaster,L,kitchen,1,misscaled,k6_small_toaster_L.png,small,c,1,1317,11,1,k6_small_toaster_L.png,385719,429391,24.0,Woman
149238,OSSe5,v2,jsons/s19.json,-0.09471519186562571,1364,651,1364,768,9-2-2023,10-6-36,1,12,k3,k3_small_saltshaker,saltshaker,L,kitchen,1,scaled,k3_small_saltshaker_L.png,small,c,1,1546,12,4,k3_small_saltshaker_L.png,385719,429391,24.0,Woman
149238,OSSe5,v2,jsons/s19.json,0.4858878542798734,1364,651,1364,768,9-2-2023,10-6-36,1,13,k7,k7_large_binderclip,binderclip,R,classroom,0,misscaled,k7_large_binderclip_R.png,large,m,1,1770,13,1,k7_large_binderclip_R.png,385719,429391,24.0,Woman
149238,OSSe5,v2,jsons/s19.json,-1.0304192081983274,1364,651,1364,768,9-2-2023,10-6-36,1,14,c1,c1_large_notebook,notebook,L,classroom,1,scaled,c1_large_notebook_L.png,large,c,1,1185,14,4,c1_large_notebook_L.png,385719,429391,24.0,Woman
149238,OSSe5,v2,jsons/s19.json,-0.8437968005087028,1364,651,1364,768,9-2-2023,10-6-36,1,15,k9,k9_large_eraser,eraser,R,classroom,0,misscaled,k9_large_eraser_R.png,large,m,1,1257,15,1,k9_large_eraser_R.png,385719,429391,24.0,Woman
149238,OSSe5,v2,jsons/s19.json,-0.3020734226318754,1364,651,1364,768,9-2-2023,10-6-36,1,16,c10,c10_small_flashdrive,flashdrive,R,classroom,1,scaled,c10_small_flashdrive_R.png,small,m,1,1466,16,4,c10_small_flashdrive_R.png,385719,429391,24.0,Woman
149238,OSSe5,v2,jsons/s19.json,-0.31762528993934414,1364,651,1364,768,9-2-2023,10-6-36,1,17,k0,k0_small_laptop,laptop,L,classroom,0,misscaled,k0_small_laptop_L.png,small,c,1,1460,17,1,k0_small_laptop_L.png,385719,429391,24.0,Woman
149238,OSSe5,v2,jsons/s19.json,-0.38242473705379715,1364,651,1364,768,9-2-2023,10-6-36,1,18,c0,c0_large_laptop,laptop,L,classroom,1,scaled,c0_large_laptop_L.png,large,c,1,1435,18,4,c0_large_laptop_L.png,385719,429391,24.0,Woman
149238,OSSe5,v2,jsons/s19.json,0.9524438735039352,1364,651,1364,768,9-2-2023,10-6-36,1,19,c8,c8_small_clipboard,clipboard,R,classroom,1,misscaled,c8_small_clipboard_R.png,small,m,1,1950,19,3,c8_small_clipboard_R.png,385719,429391,24.0,Woman
149238,OSSe5,v2,jsons/s19.json,1.9218436023361525,1364,651,1364,768,9-2-2023,10-6-36,1,20,k2,k2_small_pot,pot,L,kitchen,1,misscaled,k2_small_pot_L.png,small,c,1,2324,20,4,k2_small_pot_L.png,385719,429391,24.0,Woman
149238,OSSe5,v2,jsons/s19.json,1.2868090206145129,1364,651,1364,768,9-2-2023,10-6-36,1,21,c5,c5_large_spoon,spoon,R,kitchen,0,misscaled,c5_large_spoon_R.png,large,m,1,2079,21,1,c5_large_spoon_R.png,385719,429391,24.0,Woman
149238,OSSe5,v2,jsons/s19.json,0.26556973409073314,1364,651,1364,768,9-2-2023,10-6-36,1,22,c7,c7_small_binderclip,binderclip,R,classroom,1,scaled,c7_small_binderclip_R.png,small,m,1,1685,22,2,c7_small_binderclip_R.png,385719,429391,24.0,Woman
149238,OSSe5,v2,jsons/s19.json,2.9975144244360727,1364,651,1364,768,9-2-2023,10-6-36,1,23,k5,k5_small_spoon,spoon,L,kitchen,1,scaled,k5_small_spoon_L.png,small,c,1,2739,23,1,k5_small_spoon_L.png,385719,429391,24.0,Woman
358583,OSSe5,v2,jsons/s7.json,-0.11946434056611975,1366,625,1366,768,9-2-2023,11-19-56,1,0,k1,k1_large_notebook,notebook,R,classroom,0,scaled,k1_large_notebook_R.png,large,m,1,1568,0,4,k1_large_notebook_R.png,264701,321114,30.0,Man
358583,OSSe5,v2,jsons/s7.json,-0.08642426686281386,1366,625,1366,768,9-2-2023,11-19-56,1,1,k8,k8_small_clipboard,clipboard,L,classroom,0,misscaled,k8_small_clipboard_L.png,small,c,1,1586,1,3,k8_small_clipboard_L.png,264701,321114,30.0,Man
358583,OSSe5,v2,jsons/s7.json,1.6022906113061535,1366,625,1366,768,9-2-2023,11-19-56,1,2,k11,k11_small_kettle,kettle,R,kitchen,1,misscaled,k11_small_kettle_R.png,small,m,1,2506,2,3,k11_small_kettle_R.png,264701,321114,30.0,Man
358583,OSSe5,v2,jsons/s7.json,0.23663423156951033,1366,625,1366,768,9-2-2023,11-19-56,1,3,c3,c3_small_saltshaker,saltshaker,L,kitchen,0,scaled,c3_small_saltshaker_L.png,small,c,1,1762,3,3,c3_small_saltshaker_L.png,264701,321114,30.0,Man
358583,OSSe5,v2,jsons/s7.json,-0.49391850920358643,1366,625,1366,768,9-2-2023,11-19-56,1,4,k7,k7_small_binderclip,binderclip,L,classroom,0,scaled,k7_small_binderclip_L.png,small,c,1,1364,4,4,k7_small_binderclip_L.png,264701,321114,30.0,Man
358583,OSSe5,v2,jsons/s7.json,0.45323027029118224,1366,625,1366,768,9-2-2023,11-19-56,1,5,c8,c8_large_clipboard,clipboard,R,classroom,1,scaled,c8_large_clipboard_R.png,large,c,0,1880,5,4,c8_large_clipboard_R.png,264701,321114,30.0,Man
358583,OSSe5,v2,jsons/s7.json,-0.1726955704214459,1366,625,1366,768,9-2-2023,11-19-56,1,6,k3,k3_large_saltshaker,saltshaker,L,kitchen,1,misscaled,k3_large_saltshaker_L.png,large,c,1,1539,6,3,k3_large_saltshaker_L.png,264701,321114,30.0,Man
358583,OSSe5,v2,jsons/s7.json,0.20726527716657178,1366,625,1366,768,9-2-2023,11-19-56,1,7,c0,c0_small_laptop,laptop,L,classroom,1,misscaled,c0_small_laptop_L.png,small,c,1,1746,7,2,c0_small_laptop_L.png,264701,321114,30.0,Man
358583,OSSe5,v2,jsons/s7.json,-0.7747591356816864,1366,625,1366,768,9-2-2023,11-19-56,1,8,c11,c11_large_kettle,kettle,L,kitchen,0,scaled,c11_large_kettle_L.png,large,c,1,1211,8,3,c11_large_kettle_L.png,264701,321114,30.0,Man
358583,OSSe5,v2,jsons/s7.json,-0.9968618533539093,1366,625,1366,768,9-2-2023,11-19-56,1,9,c7,c7_large_binderclip,binderclip,R,classroom,1,misscaled,c7_large_binderclip_R.png,large,m,1,1090,9,4,c7_large_binderclip_R.png,264701,321114,30.0,Man
358583,OSSe5,v2,jsons/s7.json,-0.7031723093245237,1366,625,1366,768,9-2-2023,11-19-56,1,10,c1,c1_small_notebook,notebook,R,classroom,1,misscaled,c1_small_notebook_R.png,small,c,0,1250,10,2,c1_small_notebook_R.png,264701,321114,30.0,Man
358583,OSSe5,v2,jsons/s7.json,-0.38194937054238315,1366,625,1366,768,9-2-2023,11-19-56,1,11,c9,c9_large_eraser,eraser,R,classroom,1,misscaled,c9_large_eraser_R.png,large,m,1,1425,11,3,c9_large_eraser_R.png,264701,321114,30.0,Man
358583,OSSe5,v2,jsons/s7.json,0.35778116848163194,1366,625,1366,768,9-2-2023,11-19-56,1,12,k2,k2_large_pot,pot,L,kitchen,1,scaled,k2_large_pot_L.png,large,c,1,1828,12,2,k2_large_pot_L.png,264701,321114,30.0,Man
358583,OSSe5,v2,jsons/s7.json,-0.36359377404054655,1366,625,1366,768,9-2-2023,11-19-56,1,13,k0,k0_large_laptop,laptop,R,classroom,0,scaled,k0_large_laptop_R.png,large,m,1,1435,13,3,k0_large_laptop_R.png,264701,321114,30.0,Man
358583,OSSe5,v2,jsons/s7.json,0.058584945501695296,1366,625,1366,768,9-2-2023,11-19-56,1,14,c5,c5_small_spoon,spoon,R,kitchen,0,scaled,c5_small_spoon_R.png,small,m,1,1665,14,4,c5_small_spoon_R.png,264701,321114,30.0,Man
358583,OSSe5,v2,jsons/s7.json,-0.793114732183523,1366,625,1366,768,9-2-2023,11-19-56,1,15,k5,k5_large_spoon,spoon,L,kitchen,1,misscaled,k5_large_spoon_L.png,large,m,0,1201,15,2,k5_large_spoon_L.png,264701,321114,30.0,Man
358583,OSSe5,v2,jsons/s7.json,-0.1726955704214459,1366,625,1366,768,9-2-2023,11-19-56,1,16,k4,k4_large_sponge,sponge,R,kitchen,1,misscaled,k4_large_sponge_R.png,large,m,1,1539,16,4,k4_large_sponge_R.png,264701,321114,30.0,Man
358583,OSSe5,v2,jsons/s7.json,1.1764407724635444,1366,625,1366,768,9-2-2023,11-19-56,1,17,k6,k6_large_toaster,toaster,L,kitchen,1,scaled,k6_large_toaster_L.png,large,c,1,2274,17,4,k6_large_toaster_L.png,264701,321114,30.0,Man
358583,OSSe5,v2,jsons/s7.json,-0.029521917707120395,1366,625,1366,768,9-2-2023,11-19-56,1,18,c6,c6_small_toaster,toaster,L,kitchen,0,misscaled,c6_small_toaster_L.png,small,c,1,1617,18,3,c6_small_toaster_L.png,264701,321114,30.0,Man
358583,OSSe5,v2,jsons/s7.json,3.66178853881222,1366,625,1366,768,9-2-2023,11-19-56,1,19,k9,k9_small_eraser,eraser,L,classroom,0,scaled,k9_small_eraser_L.png,small,c,1,3628,19,2,k9_small_eraser_L.png,264701,321114,30.0,Man
358583,OSSe5,v2,jsons/s7.json,-0.8371681637879309,1366,625,1366,768,9-2-2023,11-19-56,1,20,k10,k10_small_flashdrive,flashdrive,R,classroom,0,scaled,k10_small_flashdrive_R.png,small,m,1,1177,20,4,k10_small_flashdrive_R.png,264701,321114,30.0,Man
358583,OSSe5,v2,jsons/s7.json,-0.4223316828464237,1366,625,1366,768,9-2-2023,11-19-56,1,21,c2,c2_small_pot,pot,L,kitchen,0,misscaled,c2_small_pot_L.png,small,c,1,1403,21,3,c2_small_pot_L.png,264701,321114,30.0,Man
358583,OSSe5,v2,jsons/s7.json,-0.7876080532329721,1366,625,1366,768,9-2-2023,11-19-56,1,22,c4,c4_small_sponge,sponge,R,kitchen,0,scaled,c4_small_sponge_R.png,small,m,1,1204,22,3,c4_small_sponge_R.png,264701,321114,30.0,Man
358583,OSSe5,v2,jsons/s7.json,-0.6187365654160754,1366,625,1366,768,9-2-2023,11-19-56,1,23,c10,c10_large_flashdrive,flashdrive,R,classroom,1,misscaled,c10_large_flashdrive_R.png,large,m,1,1296,23,2,c10_large_flashdrive_R.png,264701,321114,30.0,Man
477007,OSSe5,v2,jsons/s2.json,2.6993562453648665,1366,619,1366,768,9-2-2023,10-59-22,1,0,c3,c3_large_clipboard,clipboard,R,classroom,1,scaled,c3_large_clipboard_R.png,large,m,1,2360,0,4,c3_large_clipboard_R.png,231733,433361,56.0,Man
477007,OSSe5,v2,jsons/s2.json,0.5612244704778893,1366,619,1366,768,9-2-2023,10-59-22,1,1,k7,k7_small_laptop,laptop,L,classroom,0,misscaled,k7_small_laptop_L.png,small,c,1,1599,1,1,k7_small_laptop_L.png,231733,433361,56.0,Man
477007,OSSe5,v2,jsons/s2.json,-0.5429618469078953,1366,619,1366,768,9-2-2023,10-59-22,1,2,c1,c1_small_toaster,toaster,R,kitchen,0,misscaled,c1_small_toaster_R.png,small,m,1,1206,2,1,c1_small_toaster_R.png,231733,433361,56.0,Man
477007,OSSe5,v2,jsons/s2.json,-0.9025950495170059,1366,619,1366,768,9-2-2023,10-59-22,1,3,k11,k11_small_sponge,sponge,R,kitchen,1,scaled,k11_small_sponge_R.png,small,m,1,1078,3,4,k11_small_sponge_R.png,231733,433361,56.0,Man
477007,OSSe5,v2,jsons/s2.json,-0.6103930723971035,1366,619,1366,768,9-2-2023,10-59-22,1,4,k0,k0_large_spoon,spoon,L,kitchen,1,misscaled,k0_large_spoon_L.png,large,c,1,1182,4,4,k0_large_spoon_L.png,231733,433361,56.0,Man
477007,OSSe5,v2,jsons/s2.json,-0.020369849366531648,1366,619,1366,768,9-2-2023,10-59-22,1,5,c6,c6_large_kettle,kettle,L,kitchen,0,scaled,c6_large_kettle_L.png,large,c,1,1392,5,3,c6_large_kettle_L.png,231733,433361,56.0,Man
477007,OSSe5,v2,jsons/s2.json,-0.21985389143877263,1366,619,1366,768,9-2-2023,10-59-22,1,6,k8,k8_small_notebook,notebook,R,classroom,0,misscaled,k8_small_notebook_R.png,small,m,1,1321,6,3,k8_small_notebook_R.png,231733,433361,56.0,Man
477007,OSSe5,v2,jsons/s2.json,-0.3181910952772013,1366,619,1366,768,9-2-2023,10-59-22,1,7,k9,k9_small_pot,pot,L,kitchen,1,misscaled,k9_small_pot_L.png,small,c,1,1286,7,1,k9_small_pot_L.png,231733,433361,56.0,Man
477007,OSSe5,v2,jsons/s2.json,-0.641299050746324,1366,619,1366,768,9-2-2023,10-59-22,1,8,k5,k5_small_flashdrive,flashdrive,R,classroom,0,scaled,k5_small_flashdrive_R.png,small,m,1,1171,8,4,k5_small_flashdrive_R.png,231733,433361,56.0,Man
477007,OSSe5,v2,jsons/s2.json,-0.41652829911562994,1366,619,1366,768,9-2-2023,10-59-22,1,9,c11,c11_large_sponge,sponge,R,kitchen,0,misscaled,c11_large_sponge_R.png,large,m,1,1251,9,1,c11_large_sponge_R.png,231733,433361,56.0,Man
477007,OSSe5,v2,jsons/s2.json,-0.5513907500940464,1366,619,1366,768,9-2-2023,10-59-22,1,10,c0,c0_small_spoon,spoon,L,kitchen,0,scaled,c0_small_spoon_L.png,small,c,1,1203,10,4,c0_small_spoon_L.png,231733,433361,56.0,Man
477007,OSSe5,v2,jsons/s2.json,0.8309493724347221,1366,619,1366,768,9-2-2023,10-59-22,1,11,c5,c5_large_flashdrive,flashdrive,R,classroom,1,misscaled,c5_large_flashdrive_R.png,large,m,1,1695,11,3,c5_large_flashdrive_R.png,231733,433361,56.0,Man
477007,OSSe5,v2,jsons/s2.json,1.7356516477482657,1366,619,1366,768,9-2-2023,10-59-22,1,12,k2,k2_small_binderclip,binderclip,R,classroom,0,scaled,k2_small_binderclip_R.png,small,m,1,2017,12,4,k2_small_binderclip_R.png,231733,433361,56.0,Man
477007,OSSe5,v2,jsons/s2.json,0.4207427507087054,1366,619,1366,768,9-2-2023,10-59-22,1,13,c8,c8_large_notebook,notebook,L,classroom,1,scaled,c8_large_notebook_L.png,large,c,1,1549,13,4,c8_large_notebook_L.png,231733,433361,56.0,Man
477007,OSSe5,v2,jsons/s2.json,1.687887863026743,1366,619,1366,768,9-2-2023,10-59-22,1,14,c9,c9_large_pot,pot,L,kitchen,0,scaled,c9_large_pot_L.png,large,c,1,2000,14,4,c9_large_pot_L.png,231733,433361,56.0,Man
477007,OSSe5,v2,jsons/s2.json,-0.4642920838371524,1366,619,1366,768,9-2-2023,10-59-22,1,15,c4,c4_large_eraser,eraser,L,classroom,1,misscaled,c4_large_eraser_L.png,large,c,1,1234,15,3,c4_large_eraser_L.png,231733,433361,56.0,Man
477007,OSSe5,v2,jsons/s2.json,-0.34909707362642173,1366,619,1366,768,9-2-2023,10-59-22,1,16,k4,k4_small_eraser,eraser,R,classroom,0,scaled,k4_small_eraser_R.png,small,m,1,1275,16,2,k4_small_eraser_R.png,231733,433361,56.0,Man
477007,OSSe5,v2,jsons/s2.json,0.181923827101093,1366,619,1366,768,9-2-2023,10-59-22,1,17,c10,c10_large_saltshaker,saltshaker,L,kitchen,0,misscaled,c10_large_saltshaker_L.png,large,c,1,1464,17,1,c10_large_saltshaker_L.png,231733,433361,56.0,Man
477007,OSSe5,v2,jsons/s2.json,-1.1723199514738387,1366,619,1366,768,9-2-2023,10-59-22,1,18,k1,k1_large_toaster,toaster,R,kitchen,1,scaled,k1_large_toaster_R.png,large,m,1,982,18,4,k1_large_toaster_R.png,231733,433361,56.0,Man
477007,OSSe5,v2,jsons/s2.json,-0.8744987055631691,1366,619,1366,768,9-2-2023,10-59-22,1,19,c2,c2_large_binderclip,binderclip,L,classroom,1,misscaled,c2_large_binderclip_L.png,large,c,1,1088,19,4,c2_large_binderclip_L.png,231733,433361,56.0,Man
477007,OSSe5,v2,jsons/s2.json,0.6342749647578648,1366,619,1366,768,9-2-2023,10-59-22,1,20,k3,k3_small_clipboard,clipboard,R,classroom,0,misscaled,k3_small_clipboard_R.png,small,m,1,1625,20,3,k3_small_clipboard_R.png,231733,433361,56.0,Man
477007,OSSe5,v2,jsons/s2.json,-1.0093611565415854,1366,619,1366,768,9-2-2023,10-59-22,1,21,k6,k6_small_kettle,kettle,L,kitchen,1,misscaled,k6_small_kettle_L.png,small,c,1,1040,21,1,k6_small_kettle_L.png,231733,433361,56.0,Man
477007,OSSe5,v2,jsons/s2.json,-1.3296594776153245,1366,619,1366,768,9-2-2023,10-59-22,1,22,k10,k10_small_saltshaker,saltshaker,R,kitchen,1,scaled,k10_small_saltshaker_R.png,small,m,1,926,22,4,k10_small_saltshaker_R.png,231733,433361,56.0,Man
477007,OSSe5,v2,jsons/s2.json,0.6708002118978525,1366,619,1366,768,9-2-2023,10-59-22,1,23,c7,c7_large_laptop,laptop,L,classroom,1,scaled,c7_large_laptop_L.png,large,m,0,1638,23,4,c7_large_laptop_L.png,231733,433361,56.0,Man
405784,OSSe5,v2,jsons/s1.json,-0.5920318072078758,1366,651,1366,768,9-2-2023,10-31-57,1,0,c8,c8_large_pot,pot,L,kitchen,0,scaled,c8_large_pot_L.png,large,c,1,1240,0,4,c8_large_pot_L.png,276158,323665,25.0,Man
405784,OSSe5,v2,jsons/s1.json,-0.9328717082091118,1366,651,1366,768,9-2-2023,10-31-57,1,1,c7,c7_large_notebook,notebook,L,classroom,1,scaled,c7_large_notebook_L.png,large,c,1,1016,1,4,c7_large_notebook_L.png,276158,323665,25.0,Man
405784,OSSe5,v2,jsons/s1.json,-0.3150993876443717,1366,651,1366,768,9-2-2023,10-31-57,1,2,k1,k1_small_binderclip,binderclip,R,classroom,0,scaled,k1_small_binderclip_R.png,small,m,1,1422,2,4,k1_small_binderclip_R.png,276158,323665,25.0,Man
405784,OSSe5,v2,jsons/s1.json,-0.9359149216109086,1366,651,1366,768,9-2-2023,10-31-57,1,3,c3,c3_large_eraser,eraser,L,classroom,1,misscaled,c3_large_eraser_L.png,large,c,1,1014,3,3,c3_large_eraser_L.png,276158,323665,25.0,Man
405784,OSSe5,v2,jsons/s1.json,-0.7776678247174776,1366,651,1366,768,9-2-2023,10-31-57,1,4,k10,k10_small_sponge,sponge,R,kitchen,1,scaled,k10_small_sponge_R.png,small,m,1,1118,4,3,k10_small_sponge_R.png,276158,323665,25.0,Man
405784,OSSe5,v2,jsons/s1.json,-0.14772265054555045,1366,651,1366,768,9-2-2023,10-31-57,1,5,c6,c6_large_laptop,laptop,R,classroom,1,scaled,c6_large_laptop_R.png,large,m,1,1532,5,4,c6_large_laptop_R.png,276158,323665,25.0,Man
405784,OSSe5,v2,jsons/s1.json,-0.2222813788895708,1366,651,1366,768,9-2-2023,10-31-57,1,6,k2,k2_small_clipboard,clipboard,R,classroom,0,misscaled,k2_small_clipboard_R.png,small,m,1,1483,6,3,k2_small_clipboard_R.png,276158,323665,25.0,Man
405784,OSSe5,v2,jsons/s1.json,-0.8659210133695834,1366,651,1366,768,9-2-2023,10-31-57,1,7,c10,c10_large_sponge,sponge,L,kitchen,0,misscaled,c10_large_sponge_L.png,large,c,1,1060,7,4,c10_large_sponge_L.png,276158,323665,25.0,Man
405784,OSSe5,v2,jsons/s1.json,1.2567203343836495,1366,651,1366,768,9-2-2023,10-31-57,1,8,c11,c11_large_spoon,spoon,L,kitchen,0,misscaled,c11_large_spoon_L.png,large,c,1,2455,8,4,c11_large_spoon_L.png,276158,323665,25.0,Man
405784,OSSe5,v2,jsons/s1.json,-0.10359605621949756,1366,651,1366,768,9-2-2023,10-31-57,1,9,k8,k8_small_pot,pot,L,kitchen,1,misscaled,k8_small_pot_L.png,small,c,1,1561,9,1,k8_small_pot_L.png,276158,323665,25.0,Man
405784,OSSe5,v2,jsons/s1.json,0.41983664888954336,1366,651,1366,768,9-2-2023,10-31-57,1,10,k4,k4_small_flashdrive,flashdrive,R,classroom,0,scaled,k4_small_flashdrive_R.png,small,m,1,1905,10,4,k4_small_flashdrive_R.png,276158,323665,25.0,Man
405784,OSSe5,v2,jsons/s1.json,-0.06251267529524145,1366,651,1366,768,9-2-2023,10-31-57,1,11,c9,c9_large_saltshaker,saltshaker,L,kitchen,0,misscaled,c9_large_saltshaker_L.png,large,c,1,1588,11,4,c9_large_saltshaker_L.png,276158,323665,25.0,Man
405784,OSSe5,v2,jsons/s1.json,1.2080289199549015,1366,651,1366,768,9-2-2023,10-31-57,1,12,k7,k7_small_notebook,notebook,R,classroom,0,misscaled,k7_small_notebook_R.png,small,m,1,2423,12,4,k7_small_notebook_R.png,276158,323665,25.0,Man
405784,OSSe5,v2,jsons/s1.json,2.4648760548969593,1366,651,1366,768,9-2-2023,10-31-57,1,13,c0,c0_small_toaster,toaster,R,kitchen,0,misscaled,c0_small_toaster_R.png,small,m,1,3249,13,3,c0_small_toaster_R.png,276158,323665,25.0,Man
405784,OSSe5,v2,jsons/s1.json,-0.6955010628689654,1366,651,1366,768,9-2-2023,10-31-57,1,14,c2,c2_large_clipboard,clipboard,L,classroom,1,scaled,c2_large_clipboard_L.png,large,c,1,1172,14,4,c2_large_clipboard_L.png,276158,323665,25.0,Man
405784,OSSe5,v2,jsons/s1.json,-0.6711553556545914,1366,651,1366,768,9-2-2023,10-31-57,1,15,k0,k0_large_toaster,toaster,L,kitchen,1,scaled,k0_large_toaster_L.png,large,c,1,1188,15,4,k0_large_toaster_L.png,276158,323665,25.0,Man
405784,OSSe5,v2,jsons/s1.json,2.3446691255259875,1366,651,1366,768,9-2-2023,10-31-57,1,16,k5,k5_small_kettle,kettle,R,kitchen,1,misscaled,k5_small_kettle_R.png,small,m,1,3170,16,3,k5_small_kettle_R.png,276158,323665,25.0,Man
405784,OSSe5,v2,jsons/s1.json,1.1106460910974054,1366,651,1366,768,9-2-2023,10-31-57,1,17,c4,c4_large_flashdrive,flashdrive,R,classroom,1,misscaled,c4_large_flashdrive_R.png,large,m,1,2359,17,1,c4_large_flashdrive_R.png,276158,323665,25.0,Man
405784,OSSe5,v2,jsons/s1.json,-0.8370104860525143,1366,651,1366,768,9-2-2023,10-31-57,1,18,k3,k3_small_eraser,eraser,R,classroom,0,scaled,k3_small_eraser_R.png,small,m,1,1079,18,4,k3_small_eraser_R.png,276158,323665,25.0,Man
405784,OSSe5,v2,jsons/s1.json,-0.7441924772977133,1366,651,1366,768,9-2-2023,10-31-57,1,19,k11,k11_small_spoon,spoon,L,kitchen,1,scaled,k11_small_spoon_L.png,small,c,1,1140,19,4,k11_small_spoon_L.png,276158,323665,25.0,Man
405784,OSSe5,v2,jsons/s1.json,0.004438019544287042,1366,651,1366,768,9-2-2023,10-31-57,1,20,k6,k6_small_laptop,laptop,R,classroom,0,misscaled,k6_small_laptop_R.png,small,m,1,1632,20,1,k6_small_laptop_R.png,276158,323665,25.0,Man
405784,OSSe5,v2,jsons/s1.json,0.27071919220150265,1366,651,1366,768,9-2-2023,10-31-57,1,21,k9,k9_small_saltshaker,saltshaker,R,kitchen,1,scaled,k9_small_saltshaker_R.png,small,m,1,1807,21,4,k9_small_saltshaker_R.png,276158,323665,25.0,Man
405784,OSSe5,v2,jsons/s1.json,-1.0287329303657093,1366,651,1366,768,9-2-2023,10-31-57,1,22,c5,c5_large_kettle,kettle,L,kitchen,0,scaled,c5_large_kettle_L.png,large,c,1,953,22,4,c5_large_kettle_L.png,276158,323665,25.0,Man
405784,OSSe5,v2,jsons/s1.json,-0.14772265054555045,1366,651,1366,768,9-2-2023,10-31-57,1,23,c1,c1_large_binderclip,binderclip,L,classroom,1,misscaled,c1_large_binderclip_L.png,large,c,1,1532,23,4,c1_large_binderclip_L.png,276158,323665,25.0,Man
268975,OSSe5,v2,jsons/s22.json,-0.2699851611874202,1366,651,1366,768,9-2-2023,10-23-47,1,0,k5,k5_small_pot,pot,L,kitchen,1,misscaled,k5_small_pot_L.png,small,c,1,1297,0,3,k5_small_pot_L.png,305042,367576,25.0,Man
268975,OSSe5,v2,jsons/s22.json,-0.18229544232906048,1366,651,1366,768,9-2-2023,10-23-47,1,1,c1,c1_large_flashdrive,flashdrive,L,classroom,1,misscaled,c1_large_flashdrive_L.png,large,c,1,1353,1,3,c1_large_flashdrive_L.png,305042,367576,25.0,Man
268975,OSSe5,v2,jsons/s22.json,-0.19325665718635546,1366,651,1366,768,9-2-2023,10-23-47,1,2,k0,k0_small_eraser,eraser,L,classroom,0,scaled,k0_small_eraser_L.png,small,c,1,1346,2,4,k0_small_eraser_L.png,305042,367576,25.0,Man
268975,OSSe5,v2,jsons/s22.json,-0.5612402988241151,1366,651,1366,768,9-2-2023,10-23-47,1,3,c6,c6_large_saltshaker,saltshaker,L,kitchen,0,misscaled,c6_large_saltshaker_L.png,large,c,1,1111,3,3,c6_large_saltshaker_L.png,305042,367576,25.0,Man
268975,OSSe5,v2,jsons/s22.json,-0.5142636637214224,1366,651,1366,768,9-2-2023,10-23-47,1,4,c10,c10_small_binderclip,binderclip,R,classroom,1,scaled,c10_small_binderclip_R.png,small,m,1,1141,4,4,c10_small_binderclip_R.png,305042,367576,25.0,Man
268975,OSSe5,v2,jsons/s22.json,-0.450062262414409,1366,651,1366,768,9-2-2023,10-23-47,1,5,k1,k1_small_flashdrive,flashdrive,R,classroom,0,scaled,k1_small_flashdrive_R.png,small,m,1,1182,5,4,k1_small_flashdrive_R.png,305042,367576,25.0,Man
268975,OSSe5,v2,jsons/s22.json,-0.8571930999710793,1366,651,1366,768,9-2-2023,10-23-47,1,6,c4,c4_large_notebook,notebook,L,classroom,1,scaled,c4_large_notebook_L.png,large,c,1,922,6,3,c4_large_notebook_L.png,305042,367576,25.0,Man
268975,OSSe5,v2,jsons/s22.json,-0.5909921677224872,1366,651,1366,768,9-2-2023,10-23-47,1,7,c0,c0_large_eraser,eraser,R,classroom,1,misscaled,c0_large_eraser_R.png,large,m,1,1092,7,1,c0_large_eraser_R.png,305042,367576,25.0,Man
268975,OSSe5,v2,jsons/s22.json,-0.3091323571063308,1366,651,1366,768,9-2-2023,10-23-47,1,8,k6,k6_small_saltshaker,saltshaker,R,kitchen,1,scaled,k6_small_saltshaker_R.png,small,m,1,1272,8,4,k6_small_saltshaker_R.png,305042,367576,25.0,Man
268975,OSSe5,v2,jsons/s22.json,0.47850922478215047,1366,651,1366,768,9-2-2023,10-23-47,1,9,c8,c8_large_spoon,spoon,R,kitchen,0,misscaled,c8_large_spoon_R.png,large,c,0,1775,9,3,c8_large_spoon_R.png,305042,367576,25.0,Man
268975,OSSe5,v2,jsons/s22.json,0.09486670477682657,1366,651,1366,768,9-2-2023,10-23-47,1,10,c7,c7_large_sponge,sponge,L,kitchen,0,misscaled,c7_large_sponge_L.png,large,c,1,1530,10,1,c7_large_sponge_L.png,305042,367576,25.0,Man
268975,OSSe5,v2,jsons/s22.json,0.694601746254537,1366,651,1366,768,9-2-2023,10-23-47,1,11,c11,c11_small_clipboard,clipboard,R,classroom,1,misscaled,c11_small_clipboard_R.png,small,m,1,1913,11,4,c11_small_clipboard_R.png,305042,367576,25.0,Man
268975,OSSe5,v2,jsons/s22.json,0.06824661155196736,1366,651,1366,768,9-2-2023,10-23-47,1,12,k7,k7_small_sponge,sponge,L,kitchen,1,scaled,k7_small_sponge_L.png,small,c,1,1513,12,4,k7_small_sponge_L.png,305042,367576,25.0,Man
268975,OSSe5,v2,jsons/s22.json,4.260128350548914,1366,651,1366,768,9-2-2023,10-23-47,1,13,k2,k2_small_kettle,kettle,R,kitchen,1,misscaled,k2_small_kettle_R.png,small,m,1,4190,13,3,k2_small_kettle_R.png,305042,367576,25.0,Man
268975,OSSe5,v2,jsons/s22.json,0.15593633041032712,1366,651,1366,768,9-2-2023,10-23-47,1,14,k9,k9_small_toaster,toaster,L,kitchen,1,misscaled,k9_small_toaster_L.png,small,c,1,1569,14,3,k9_small_toaster_L.png,305042,367576,25.0,Man
268975,OSSe5,v2,jsons/s22.json,-0.6113487096003206,1366,651,1366,768,9-2-2023,10-23-47,1,15,k10,k10_large_binderclip,binderclip,R,classroom,0,misscaled,k10_large_binderclip_R.png,large,m,1,1079,15,3,k10_large_binderclip_R.png,305042,367576,25.0,Man
268975,OSSe5,v2,jsons/s22.json,-0.7992552500110915,1366,651,1366,768,9-2-2023,10-23-47,1,16,c3,c3_large_laptop,laptop,R,classroom,1,scaled,c3_large_laptop_R.png,large,m,1,959,16,4,c3_large_laptop_R.png,305042,367576,25.0,Man
268975,OSSe5,v2,jsons/s22.json,-0.050760864041520866,1366,651,1366,768,9-2-2023,10-23-47,1,17,k3,k3_small_laptop,laptop,L,classroom,0,misscaled,k3_small_laptop_L.png,small,c,1,1437,17,2,k3_small_laptop_L.png,305042,367576,25.0,Man
268975,OSSe5,v2,jsons/s22.json,0.3313157681270466,1366,651,1366,768,9-2-2023,10-23-47,1,18,k11,k11_large_clipboard,clipboard,R,classroom,0,scaled,k11_large_clipboard_R.png,large,m,1,1681,18,4,k11_large_clipboard_R.png,305042,367576,25.0,Man
268975,OSSe5,v2,jsons/s22.json,-0.7350538487040782,1366,651,1366,768,9-2-2023,10-23-47,1,19,k8,k8_small_spoon,spoon,R,kitchen,1,scaled,k8_small_spoon_R.png,small,m,1,1000,19,4,k8_small_spoon_R.png,305042,367576,25.0,Man
268975,OSSe5,v2,jsons/s22.json,0.15750221824708352,1366,651,1366,768,9-2-2023,10-23-47,1,20,c9,c9_large_toaster,toaster,L,kitchen,0,scaled,c9_large_toaster_L.png,large,c,1,1570,20,4,c9_large_toaster_L.png,305042,367576,25.0,Man
268975,OSSe5,v2,jsons/s22.json,0.3767265153929829,1366,651,1366,768,9-2-2023,10-23-47,1,21,k4,k4_small_notebook,notebook,L,classroom,0,misscaled,k4_small_notebook_L.png,small,c,1,1710,21,3,k4_small_notebook_L.png,305042,367576,25.0,Man
268975,OSSe5,v2,jsons/s22.json,-0.39369030029117774,1366,651,1366,768,9-2-2023,10-23-47,1,22,c5,c5_large_pot,pot,R,kitchen,0,scaled,c5_large_pot_R.png,large,m,1,1218,22,4,c5_large_pot_R.png,305042,367576,25.0,Man
268975,OSSe5,v2,jsons/s22.json,-0.09930338698097001,1366,651,1366,768,9-2-2023,10-23-47,1,23,c2,c2_large_kettle,kettle,L,kitchen,0,scaled,c2_large_kettle_L.png,large,c,1,1406,23,4,c2_large_kettle_L.png,305042,367576,25.0,Man
685197,OSSe5,v2,jsons/s7.json,0.5812525886638756,1366,619,1366,768,9-2-2023,8-18-28,1,0,k1,k1_large_notebook,notebook,R,classroom,0,scaled,k1_large_notebook_R.png,large,m,1,1403,0,3,k1_large_notebook_R.png,289466,375805,51.0,Woman
685197,OSSe5,v2,jsons/s7.json,0.5431584812691923,1366,619,1366,768,9-2-2023,8-18-28,1,1,k8,k8_small_clipboard,clipboard,R,classroom,0,misscaled,k8_small_clipboard_R.png,small,m,1,1393,1,2,k8_small_clipboard_R.png,289466,375805,51.0,Woman
685197,OSSe5,v2,jsons/s7.json,0.0326974421804362,1366,619,1366,768,9-2-2023,8-18-28,1,2,k11,k11_small_kettle,kettle,R,kitchen,1,misscaled,k11_small_kettle_R.png,small,m,1,1259,2,1,k11_small_kettle_R.png,289466,375805,51.0,Woman
685197,OSSe5,v2,jsons/s7.json,1.0993324492315684,1366,619,1366,768,9-2-2023,8-18-28,1,3,c3,c3_small_saltshaker,saltshaker,L,kitchen,0,scaled,c3_small_saltshaker_L.png,small,c,1,1539,3,2,c3_small_saltshaker_L.png,289466,375805,51.0,Woman
685197,OSSe5,v2,jsons/s7.json,-0.5158577043030032,1366,619,1366,768,9-2-2023,8-18-28,1,4,k7,k7_small_binderclip,binderclip,L,classroom,0,scaled,k7_small_binderclip_L.png,small,c,1,1115,4,1,k7_small_binderclip_L.png,289466,375805,51.0,Woman
685197,OSSe5,v2,jsons/s7.json,1.1717112532814666,1366,619,1366,768,9-2-2023,8-18-28,1,5,c8,c8_large_clipboard,clipboard,R,classroom,1,scaled,c8_large_clipboard_R.png,large,m,1,1558,5,3,c8_large_clipboard_R.png,289466,375805,51.0,Woman
685197,OSSe5,v2,jsons/s7.json,0.036506852919904534,1366,619,1366,768,9-2-2023,8-18-28,1,6,k3,k3_large_saltshaker,saltshaker,R,kitchen,1,misscaled,k3_large_saltshaker_R.png,large,m,1,1260,6,2,k3_large_saltshaker_R.png,289466,375805,51.0,Woman
685197,OSSe5,v2,jsons/s7.json,-0.8053729205025962,1366,619,1366,768,9-2-2023,8-18-28,1,7,c0,c0_small_laptop,laptop,L,classroom,1,misscaled,c0_small_laptop_L.png,small,c,1,1039,7,1,c0_small_laptop_L.png,289466,375805,51.0,Woman
685197,OSSe5,v2,jsons/s7.json,-0.5691894546555598,1366,619,1366,768,9-2-2023,8-18-28,1,8,c11,c11_large_kettle,kettle,L,kitchen,0,scaled,c11_large_kettle_L.png,large,c,1,1101,8,4,c11_large_kettle_L.png,289466,375805,51.0,Woman
685197,OSSe5,v2,jsons/s7.json,0.6117278745796222,1366,619,1366,768,9-2-2023,8-18-28,1,9,c7,c7_large_binderclip,binderclip,L,classroom,1,misscaled,c7_large_binderclip_L.png,large,c,1,1411,9,3,c7_large_binderclip_L.png,289466,375805,51.0,Woman
685197,OSSe5,v2,jsons/s7.json,-0.7368035271921662,1366,619,1366,768,9-2-2023,8-18-28,1,10,c1,c1_small_notebook,notebook,R,classroom,1,misscaled,c1_small_notebook_R.png,small,m,1,1057,10,1,c1_small_notebook_R.png,289466,375805,51.0,Woman
685197,OSSe5,v2,jsons/s7.json,-1.2358363340625174,1366,619,1366,768,9-2-2023,8-18-28,1,11,c9,c9_large_eraser,eraser,R,classroom,1,misscaled,c9_large_eraser_R.png,large,m,1,926,11,3,c9_large_eraser_R.png,289466,375805,51.0,Woman
685197,OSSe5,v2,jsons/s7.json,0.18507387175916937,1366,619,1366,768,9-2-2023,8-18-28,1,12,k2,k2_large_pot,pot,R,kitchen,1,scaled,k2_large_pot_R.png,large,m,1,1299,12,4,k2_large_pot_R.png,289466,375805,51.0,Woman
685197,OSSe5,v2,jsons/s7.json,-0.4625259539504466,1366,619,1366,768,9-2-2023,8-18-28,1,13,k0,k0_large_laptop,laptop,R,classroom,0,scaled,k0_large_laptop_R.png,large,m,1,1129,13,3,k0_large_laptop_R.png,289466,375805,51.0,Woman
685197,OSSe5,v2,jsons/s7.json,-0.6834717768396097,1366,619,1366,768,9-2-2023,8-18-28,1,14,c5,c5_small_spoon,spoon,L,kitchen,0,scaled,c5_small_spoon_L.png,small,c,1,1071,14,1,c5_small_spoon_L.png,289466,375805,51.0,Woman
685197,OSSe5,v2,jsons/s7.json,-1.2396457448019857,1366,619,1366,768,9-2-2023,8-18-28,1,15,k5,k5_large_spoon,spoon,R,kitchen,1,misscaled,k5_large_spoon_R.png,large,m,1,925,15,3,k5_large_spoon_R.png,289466,375805,51.0,Woman
685197,OSSe5,v2,jsons/s7.json,-0.04730018334839871,1366,619,1366,768,9-2-2023,8-18-28,1,16,k4,k4_large_sponge,sponge,L,kitchen,1,misscaled,k4_large_sponge_L.png,large,c,1,1238,16,4,k4_large_sponge_L.png,289466,375805,51.0,Woman
685197,OSSe5,v2,jsons/s7.json,-0.3025307028927768,1366,619,1366,768,9-2-2023,8-18-28,1,17,k6,k6_large_toaster,toaster,L,kitchen,1,scaled,k6_large_toaster_L.png,large,c,1,1171,17,4,k6_large_toaster_L.png,289466,375805,51.0,Woman
685197,OSSe5,v2,jsons/s7.json,0.07841037105405615,1366,619,1366,768,9-2-2023,8-18-28,1,18,c6,c6_small_toaster,toaster,L,kitchen,0,misscaled,c6_small_toaster_L.png,small,c,1,1271,18,2,c6_small_toaster_L.png,289466,375805,51.0,Woman
685197,OSSe5,v2,jsons/s7.json,-1.1367916548363408,1366,619,1366,768,9-2-2023,8-18-28,1,19,k9,k9_small_eraser,eraser,R,classroom,0,scaled,k9_small_eraser_R.png,small,m,1,952,19,1,k9_small_eraser_R.png,289466,375805,51.0,Woman
685197,OSSe5,v2,jsons/s7.json,1.396466486910098,1366,619,1366,768,9-2-2023,8-18-28,1,20,k10,k10_small_flashdrive,flashdrive,R,classroom,0,scaled,k10_small_flashdrive_R.png,small,m,1,1617,20,3,k10_small_flashdrive_R.png,289466,375805,51.0,Woman
685197,OSSe5,v2,jsons/s7.json,0.828864286729317,1366,619,1366,768,9-2-2023,8-18-28,1,21,c2,c2_small_pot,pot,L,kitchen,0,misscaled,c2_small_pot_L.png,small,c,1,1468,21,1,c2_small_pot_L.png,289466,375805,51.0,Woman
685197,OSSe5,v2,jsons/s7.json,-1.5520174254383887,1366,619,1366,768,9-2-2023,8-18-28,1,22,c4,c4_small_sponge,sponge,L,kitchen,0,scaled,c4_small_sponge_L.png,small,c,1,843,22,1,c4_small_sponge_L.png,289466,375805,51.0,Woman
685197,OSSe5,v2,jsons/s7.json,2.7221414242450765,1366,619,1366,768,9-2-2023,8-18-28,1,23,c10,c10_large_flashdrive,flashdrive,L,classroom,1,misscaled,c10_large_flashdrive_L.png,large,c,1,1965,23,1,c10_large_flashdrive_L.png,289466,375805,51.0,Woman
630119,OSSe5,v2,jsons/s10.json,-0.4710619830595605,1366,619,1366,768,9-2-2023,13-22-34,1,0,k8,k8_large_spoon,spoon,R,kitchen,1,misscaled,k8_large_spoon_R.png,large,m,1,1298,0,2,k8_large_spoon_R.png,276933,373490,30.0,Woman
630119,OSSe5,v2,jsons/s10.json,0.5746438858628955,1366,619,1366,768,9-2-2023,13-22-34,1,1,c2,c2_small_kettle,kettle,L,kitchen,0,misscaled,c2_small_kettle_L.png,small,c,1,2056,1,1,c2_small_kettle_L.png,276933,373490,30.0,Woman
630119,OSSe5,v2,jsons/s10.json,-0.477959779028706,1366,619,1366,768,9-2-2023,13-22-34,1,2,k0,k0_large_eraser,eraser,L,classroom,0,misscaled,k0_large_eraser_L.png,large,c,1,1293,2,1,k0_large_eraser_L.png,276933,373490,30.0,Woman
630119,OSSe5,v2,jsons/s10.json,-0.7124848419796526,1366,619,1366,768,9-2-2023,13-22-34,1,3,k7,k7_large_sponge,sponge,R,kitchen,1,misscaled,k7_large_sponge_R.png,large,m,1,1123,3,3,k7_large_sponge_R.png,276933,373490,30.0,Woman
630119,OSSe5,v2,jsons/s10.json,0.1607761277141662,1366,619,1366,768,9-2-2023,13-22-34,1,4,c1,c1_small_flashdrive,flashdrive,L,classroom,1,scaled,c1_small_flashdrive_L.png,small,c,1,1756,4,4,c1_small_flashdrive_L.png,276933,373490,30.0,Woman
630119,OSSe5,v2,jsons/s10.json,0.6353444903913757,1366,619,1366,768,9-2-2023,13-22-34,1,5,c11,c11_large_clipboard,clipboard,R,classroom,1,scaled,c11_large_clipboard_R.png,large,m,1,2100,5,2,c11_large_clipboard_R.png,276933,373490,30.0,Woman
630119,OSSe5,v2,jsons/s10.json,-0.7704263281204746,1366,619,1366,768,9-2-2023,13-22-34,1,6,c7,c7_small_sponge,sponge,R,kitchen,0,scaled,c7_small_sponge_R.png,small,m,1,1081,6,4,c7_small_sponge_R.png,276933,373490,30.0,Woman
630119,OSSe5,v2,jsons/s10.json,0.6477605231358377,1366,619,1366,768,9-2-2023,13-22-34,1,7,c6,c6_small_saltshaker,saltshaker,R,kitchen,0,scaled,c6_small_saltshaker_R.png,small,m,1,2109,7,4,c6_small_saltshaker_R.png,276933,373490,30.0,Woman
630119,OSSe5,v2,jsons/s10.json,-0.14962469089738076,1366,619,1366,768,9-2-2023,13-22-34,1,8,c8,c8_small_spoon,spoon,L,kitchen,0,scaled,c8_small_spoon_L.png,small,c,1,1531,8,4,c8_small_spoon_L.png,276933,373490,30.0,Woman
630119,OSSe5,v2,jsons/s10.json,-0.06823069846146401,1366,619,1366,768,9-2-2023,13-22-34,1,9,c9,c9_small_toaster,toaster,L,kitchen,0,misscaled,c9_small_toaster_L.png,small,c,1,1590,9,2,c9_small_toaster_L.png,276933,373490,30.0,Woman
630119,OSSe5,v2,jsons/s10.json,-0.7166235195611399,1366,619,1366,768,9-2-2023,13-22-34,1,10,k11,k11_small_clipboard,clipboard,L,classroom,0,misscaled,k11_small_clipboard_L.png,small,c,1,1120,10,2,k11_small_clipboard_L.png,276933,373490,30.0,Woman
630119,OSSe5,v2,jsons/s10.json,-0.633849967931394,1366,619,1366,768,9-2-2023,13-22-34,1,11,c3,c3_small_laptop,laptop,R,classroom,1,misscaled,c3_small_laptop_R.png,small,m,1,1180,11,1,c3_small_laptop_R.png,276933,373490,30.0,Woman
630119,OSSe5,v2,jsons/s10.json,0.6422422863605213,1366,619,1366,768,9-2-2023,13-22-34,1,12,c4,c4_small_notebook,notebook,R,classroom,1,misscaled,c4_small_notebook_R.png,small,m,1,2105,12,4,c4_small_notebook_R.png,276933,373490,30.0,Woman
630119,OSSe5,v2,jsons/s10.json,0.0007472612299908657,1366,619,1366,768,9-2-2023,13-22-34,1,13,c10,c10_large_binderclip,binderclip,R,classroom,1,misscaled,c10_large_binderclip_R.png,large,m,1,1640,13,1,c10_large_binderclip_R.png,276933,373490,30.0,Woman
630119,OSSe5,v2,jsons/s10.json,-0.534521705975699,1366,619,1366,768,9-2-2023,13-22-34,1,14,c5,c5_small_pot,pot,L,kitchen,0,misscaled,c5_small_pot_L.png,small,c,1,1252,14,2,c5_small_pot_L.png,276933,373490,30.0,Woman
630119,OSSe5,v2,jsons/s10.json,-0.8559589981378787,1366,619,1366,768,9-2-2023,13-22-34,1,15,k5,k5_large_pot,pot,R,kitchen,1,scaled,k5_large_pot_R.png,large,m,1,1019,15,4,k5_large_pot_R.png,276933,373490,30.0,Woman
630119,OSSe5,v2,jsons/s10.json,0.24906791611922843,1366,619,1366,768,9-2-2023,13-22-34,1,16,k1,k1_large_flashdrive,flashdrive,L,classroom,0,misscaled,k1_large_flashdrive_L.png,large,c,1,1820,16,1,k1_large_flashdrive_L.png,276933,373490,30.0,Woman
630119,OSSe5,v2,jsons/s10.json,-0.2392960384962721,1366,619,1366,768,9-2-2023,13-22-34,1,17,k2,k2_large_kettle,kettle,L,kitchen,1,scaled,k2_large_kettle_L.png,large,c,1,1466,17,4,k2_large_kettle_L.png,276933,373490,30.0,Woman
630119,OSSe5,v2,jsons/s10.json,0.010404175586794549,1366,619,1366,768,9-2-2023,13-22-34,1,18,k4,k4_large_notebook,notebook,R,classroom,0,scaled,k4_large_notebook_R.png,large,m,1,1647,18,1,k4_large_notebook_R.png,276933,373490,30.0,Woman
630119,OSSe5,v2,jsons/s10.json,-0.7000688092351907,1366,619,1366,768,9-2-2023,13-22-34,1,19,k3,k3_large_laptop,laptop,R,classroom,0,scaled,k3_large_laptop_R.png,large,m,1,1132,19,4,k3_large_laptop_R.png,276933,373490,30.0,Woman
630119,OSSe5,v2,jsons/s10.json,3.7641847419957695,1366,619,1366,768,9-2-2023,13-22-34,1,20,k6,k6_large_saltshaker,saltshaker,L,kitchen,1,misscaled,k6_large_saltshaker_L.png,large,c,1,4368,20,4,k6_large_saltshaker_L.png,276933,373490,30.0,Woman
630119,OSSe5,v2,jsons/s10.json,-0.901484451534239,1366,619,1366,768,9-2-2023,13-22-34,1,21,c0,c0_small_eraser,eraser,L,classroom,1,scaled,c0_small_eraser_L.png,small,c,1,986,21,4,c0_small_eraser_L.png,276933,373490,30.0,Woman
630119,OSSe5,v2,jsons/s10.json,-0.7649080913451582,1366,619,1366,768,9-2-2023,13-22-34,1,22,k10,k10_small_binderclip,binderclip,L,classroom,0,scaled,k10_small_binderclip_L.png,small,c,1,1085,22,4,k10_small_binderclip_L.png,276933,373490,30.0,Woman
630119,OSSe5,v2,jsons/s10.json,1.3113284953676336,1366,619,1366,768,9-2-2023,13-22-34,1,23,k9,k9_large_toaster,toaster,R,kitchen,1,scaled,k9_large_toaster_R.png,large,m,1,2590,23,4,k9_large_toaster_R.png,276933,373490,30.0,Woman
970977,OSSe5,v2,jsons/s12.json,-1.1420085191398297,1366,651,1366,768,9-2-2023,11-17-48,1,0,c11,c11_small_toaster,toaster,L,kitchen,0,misscaled,c11_small_toaster_L.png,small,c,1,1219,0,3,c11_small_toaster_L.png,306815,357930,1992.0,Woman
970977,OSSe5,v2,jsons/s12.json,-0.7217310447156702,1366,651,1366,768,9-2-2023,11-17-48,1,1,c1,c1_small_clipboard,clipboard,L,classroom,1,misscaled,c1_small_clipboard_L.png,small,c,1,1469,1,1,c1_small_clipboard_L.png,306815,357930,1992.0,Woman
970977,OSSe5,v2,jsons/s12.json,0.4163803560249537,1366,651,1366,768,9-2-2023,11-17-48,1,2,k11,k11_large_toaster,toaster,R,kitchen,1,scaled,k11_large_toaster_R.png,large,m,1,2146,2,2,k11_large_toaster_R.png,306815,357930,1992.0,Woman
970977,OSSe5,v2,jsons/s12.json,-1.3622339157380892,1366,651,1366,768,9-2-2023,11-17-48,1,3,c0,c0_small_binderclip,binderclip,L,classroom,1,scaled,c0_small_binderclip_L.png,small,c,1,1088,3,3,c0_small_binderclip_L.png,306815,357930,1992.0,Woman
970977,OSSe5,v2,jsons/s12.json,-1.2294262338200548,1366,651,1366,768,9-2-2023,11-17-48,1,4,k0,k0_large_binderclip,binderclip,L,classroom,0,misscaled,k0_large_binderclip_L.png,large,c,1,1167,4,1,k0_large_binderclip_L.png,306815,357930,1992.0,Woman
970977,OSSe5,v2,jsons/s12.json,-1.3033950693187069,1366,651,1366,768,9-2-2023,11-17-48,1,5,k10,k10_large_spoon,spoon,L,kitchen,1,misscaled,k10_large_spoon_L.png,large,c,1,1123,5,2,k10_large_spoon_L.png,306815,357930,1992.0,Woman
970977,OSSe5,v2,jsons/s12.json,-0.024070437171565394,1366,651,1366,768,9-2-2023,11-17-48,1,6,c4,c4_small_kettle,kettle,L,kitchen,0,misscaled,c4_small_kettle_L.png,small,c,1,1884,6,2,c4_small_kettle_L.png,306815,357930,1992.0,Woman
970977,OSSe5,v2,jsons/s12.json,-0.2863235812122409,1366,651,1366,768,9-2-2023,11-17-48,1,7,k1,k1_large_clipboard,clipboard,R,classroom,0,scaled,k1_large_clipboard_R.png,large,m,1,1728,7,2,k1_large_clipboard_R.png,306815,357930,1992.0,Woman
970977,OSSe5,v2,jsons/s12.json,-0.5199978569920736,1366,651,1366,768,9-2-2023,11-17-48,1,8,c2,c2_small_eraser,eraser,R,classroom,1,scaled,c2_small_eraser_R.png,small,m,1,1589,8,4,c2_small_eraser_R.png,306815,357930,1992.0,Woman
970977,OSSe5,v2,jsons/s12.json,-0.7066010556364004,1366,651,1366,768,9-2-2023,11-17-48,1,9,k7,k7_large_pot,pot,R,kitchen,1,scaled,k7_large_pot_R.png,large,m,1,1478,9,4,k7_large_pot_R.png,306815,357930,1992.0,Woman
970977,OSSe5,v2,jsons/s12.json,-0.31994577916617367,1366,651,1366,768,9-2-2023,11-17-48,1,10,c6,c6_small_notebook,notebook,R,classroom,1,misscaled,c6_small_notebook_R.png,small,m,1,1708,10,1,c6_small_notebook_R.png,306815,357930,1992.0,Woman
970977,OSSe5,v2,jsons/s12.json,0.6466924120093931,1366,651,1366,768,9-2-2023,11-17-48,1,11,k8,k8_large_saltshaker,saltshaker,L,kitchen,1,misscaled,k8_large_saltshaker_L.png,large,c,1,2283,11,3,k8_large_saltshaker_L.png,306815,357930,1992.0,Woman
970977,OSSe5,v2,jsons/s12.json,0.6819957198610225,1366,651,1366,768,9-2-2023,11-17-48,1,12,k5,k5_large_laptop,laptop,R,classroom,0,scaled,k5_large_laptop_R.png,large,m,1,2304,12,3,k5_large_laptop_R.png,306815,357930,1992.0,Woman
970977,OSSe5,v2,jsons/s12.json,1.61333060318496,1366,651,1366,768,9-2-2023,11-17-48,1,13,k2,k2_large_eraser,eraser,L,classroom,0,misscaled,k2_large_eraser_L.png,large,c,1,2858,13,1,k2_large_eraser_L.png,306815,357930,1992.0,Woman
970977,OSSe5,v2,jsons/s12.json,1.3325852502696214,1366,651,1366,768,9-2-2023,11-17-48,1,14,k3,k3_large_flashdrive,flashdrive,L,classroom,0,misscaled,k3_large_flashdrive_L.png,large,c,1,2691,14,1,k3_large_flashdrive_L.png,306815,357930,1992.0,Woman
970977,OSSe5,v2,jsons/s12.json,1.7814415929546237,1366,651,1366,768,9-2-2023,11-17-48,1,15,k6,k6_large_notebook,notebook,R,classroom,0,scaled,k6_large_notebook_R.png,large,m,1,2958,15,2,k6_large_notebook_R.png,306815,357930,1992.0,Woman
970977,OSSe5,v2,jsons/s12.json,0.00618954098697409,1366,651,1366,768,9-2-2023,11-17-48,1,17,c8,c8_small_saltshaker,saltshaker,L,kitchen,0,scaled,c8_small_saltshaker_L.png,small,c,1,1902,17,3,c8_small_saltshaker_L.png,306815,357930,1992.0,Woman
970977,OSSe5,v2,jsons/s12.json,0.1406783328027051,1366,651,1366,768,9-2-2023,11-17-48,1,18,c10,c10_small_spoon,spoon,R,kitchen,0,scaled,c10_small_spoon_R.png,small,m,1,1982,18,3,c10_small_spoon_R.png,306815,357930,1992.0,Woman
970977,OSSe5,v2,jsons/s12.json,0.49539252121669575,1366,651,1366,768,9-2-2023,11-17-48,1,19,c3,c3_small_flashdrive,flashdrive,R,classroom,1,scaled,c3_small_flashdrive_R.png,small,m,1,2193,19,4,c3_small_flashdrive_R.png,306815,357930,1992.0,Woman
970977,OSSe5,v2,jsons/s12.json,-0.9688541996770759,1366,651,1366,768,9-2-2023,11-17-48,1,20,c7,c7_small_pot,pot,R,kitchen,0,misscaled,c7_small_pot_R.png,small,m,1,1322,20,2,c7_small_pot_R.png,306815,357930,1992.0,Woman
970977,OSSe5,v2,jsons/s12.json,-0.3283513286546568,1366,651,1366,768,9-2-2023,11-17-48,1,21,k9,k9_large_sponge,sponge,R,kitchen,1,misscaled,k9_large_sponge_R.png,large,m,1,1703,21,1,k9_large_sponge_R.png,306815,357930,1992.0,Woman
970977,OSSe5,v2,jsons/s12.json,1.79825269193159,1366,651,1366,768,9-2-2023,11-17-48,1,23,c5,c5_small_laptop,laptop,L,classroom,1,misscaled,c5_small_laptop_L.png,small,c,1,2968,23,1,c5_small_laptop_L.png,306815,357930,1992.0,Woman
582271,OSSe5,v2,jsons/s23.json,0.14280713097224,1364,619,1364,768,9-3-2023,10-16-32,1,0,c11,c11_small_binderclip,binderclip,L,classroom,1,scaled,c11_small_binderclip_L.png,small,c,1,2011,0,3,c11_small_binderclip_L.png,288192,375891,33.0,Man
582271,OSSe5,v2,jsons/s23.json,1.4880100773699032,1818,825,1364,768,9-3-2023,10-16-32,1,1,k1,k1_small_eraser,eraser,R,classroom,0,scaled,k1_small_eraser_R.png,small,m,1,2847,1,4,k1_small_eraser_R.png,288192,375891,33.0,Man
582271,OSSe5,v2,jsons/s23.json,2.0125748626876523,1818,825,1364,768,9-3-2023,10-16-32,1,2,c3,c3_large_kettle,kettle,L,kitchen,0,scaled,c3_large_kettle_L.png,large,c,1,3173,2,3,c3_large_kettle_L.png,288192,375891,33.0,Man
582271,OSSe5,v2,jsons/s23.json,2.757585585393535,1818,825,1364,768,9-3-2023,10-16-32,1,3,k6,k6_small_pot,pot,L,kitchen,1,misscaled,k6_small_pot_L.png,small,c,1,3636,3,1,k6_small_pot_L.png,288192,375891,33.0,Man
582271,OSSe5,v2,jsons/s23.json,-0.0631569565144836,1818,825,1364,768,9-3-2023,10-16-32,1,4,k5,k5_small_notebook,notebook,R,classroom,0,misscaled,k5_small_notebook_R.png,small,m,1,1883,4,3,k5_small_notebook_R.png,288192,375891,33.0,Man
582271,OSSe5,v2,jsons/s23.json,-0.7003583521765346,1818,825,1364,768,9-3-2023,10-16-32,1,5,c2,c2_large_flashdrive,flashdrive,R,classroom,1,misscaled,c2_large_flashdrive_R.png,large,c,0,1487,5,2,c2_large_flashdrive_R.png,288192,375891,33.0,Man
582271,OSSe5,v2,jsons/s23.json,-0.7631130350826457,1818,825,1364,768,9-3-2023,10-16-32,1,6,k8,k8_small_sponge,sponge,R,kitchen,1,scaled,k8_small_sponge_R.png,small,m,1,1448,6,2,k8_small_sponge_R.png,288192,375891,33.0,Man
582271,OSSe5,v2,jsons/s23.json,1.2289458735780088,1818,825,1364,768,9-3-2023,10-16-32,1,7,k0,k0_small_clipboard,clipboard,R,classroom,0,misscaled,k0_small_clipboard_R.png,small,c,0,2686,7,2,k0_small_clipboard_R.png,288192,375891,33.0,Man
582271,OSSe5,v2,jsons/s23.json,-0.4171577318822897,1818,825,1364,768,9-3-2023,10-16-32,1,8,c6,c6_large_pot,pot,L,kitchen,0,scaled,c6_large_pot_L.png,large,c,1,1663,8,3,c6_large_pot_L.png,288192,375891,33.0,Man
582271,OSSe5,v2,jsons/s23.json,0.4163531846655447,1818,825,1364,768,9-3-2023,10-16-32,1,9,c5,c5_large_notebook,notebook,R,classroom,1,scaled,c5_large_notebook_R.png,large,c,0,2181,9,3,c5_large_notebook_R.png,288192,375891,33.0,Man
582271,OSSe5,v2,jsons/s23.json,-0.8467859456241272,1818,825,1364,768,9-3-2023,10-16-32,1,10,c1,c1_large_eraser,eraser,R,classroom,1,misscaled,c1_large_eraser_R.png,large,m,1,1396,10,2,c1_large_eraser_R.png,288192,375891,33.0,Man
582271,OSSe5,v2,jsons/s23.json,-0.45416690385256037,1818,825,1364,768,9-3-2023,10-16-32,1,11,c10,c10_large_toaster,toaster,L,kitchen,0,scaled,c10_large_toaster_L.png,large,c,1,1640,11,3,c10_large_toaster_L.png,288192,375891,33.0,Man
582271,OSSe5,v2,jsons/s23.json,-1.067231883012261,1818,825,1364,768,9-3-2023,10-16-32,1,12,k9,k9_small_spoon,spoon,R,kitchen,1,scaled,k9_small_spoon_R.png,small,m,1,1259,12,4,k9_small_spoon_R.png,288192,375891,33.0,Man
582271,OSSe5,v2,jsons/s23.json,-0.42037592074926977,1818,825,1364,768,9-3-2023,10-16-32,1,13,c8,c8_large_sponge,sponge,R,kitchen,0,misscaled,c8_large_sponge_R.png,large,m,1,1661,13,1,c8_large_sponge_R.png,288192,375891,33.0,Man
582271,OSSe5,v2,jsons/s23.json,-0.4589941871530305,1818,825,1364,768,9-3-2023,10-16-32,1,14,k4,k4_small_laptop,laptop,L,classroom,0,misscaled,k4_small_laptop_L.png,small,c,1,1637,14,1,k4_small_laptop_L.png,288192,375891,33.0,Man
582271,OSSe5,v2,jsons/s23.json,-0.6810492189746543,1818,825,1364,768,9-3-2023,10-16-32,1,15,c7,c7_large_saltshaker,saltshaker,L,kitchen,0,misscaled,c7_large_saltshaker_L.png,large,c,1,1499,15,3,c7_large_saltshaker_L.png,288192,375891,33.0,Man
582271,OSSe5,v2,jsons/s23.json,-0.7904676404519763,1818,825,1364,768,9-3-2023,10-16-32,1,16,c0,c0_large_clipboard,clipboard,R,classroom,1,scaled,c0_large_clipboard_R.png,large,m,1,1431,16,2,c0_large_clipboard_R.png,288192,375891,33.0,Man
582271,OSSe5,v2,jsons/s23.json,-0.605421780600623,1818,825,1364,768,9-3-2023,10-16-32,1,17,c4,c4_large_laptop,laptop,L,classroom,1,scaled,c4_large_laptop_L.png,large,c,1,1546,17,2,c4_large_laptop_L.png,288192,375891,33.0,Man
582271,OSSe5,v2,jsons/s23.json,-0.018102312376762814,1818,825,1364,768,9-3-2023,10-16-32,1,18,k3,k3_small_kettle,kettle,R,kitchen,1,misscaled,k3_small_kettle_R.png,small,m,1,1911,18,1,k3_small_kettle_R.png,288192,375891,33.0,Man
582271,OSSe5,v2,jsons/s23.json,-0.7003583521765346,1818,825,1364,768,9-3-2023,10-16-32,1,19,k11,k11_large_binderclip,binderclip,L,classroom,0,misscaled,k11_large_binderclip_L.png,large,c,1,1487,19,1,k11_large_binderclip_L.png,288192,375891,33.0,Man
582271,OSSe5,v2,jsons/s23.json,-0.603812686167133,1818,825,1364,768,9-3-2023,10-16-32,1,20,c9,c9_large_spoon,spoon,R,kitchen,0,misscaled,c9_large_spoon_R.png,large,m,1,1547,20,1,c9_large_spoon_R.png,288192,375891,33.0,Man
582271,OSSe5,v2,jsons/s23.json,0.8701178149097326,1818,825,1364,768,9-3-2023,10-16-32,1,21,k10,k10_small_toaster,toaster,L,kitchen,1,misscaled,k10_small_toaster_L.png,small,c,1,2463,21,2,k10_small_toaster_L.png,288192,375891,33.0,Man
582271,OSSe5,v2,jsons/s23.json,0.38738948486272423,1818,825,1364,768,9-3-2023,10-16-32,1,22,k7,k7_small_saltshaker,saltshaker,L,kitchen,1,scaled,k7_small_saltshaker_L.png,small,c,1,2163,22,1,k7_small_saltshaker_L.png,288192,375891,33.0,Man
582271,OSSe5,v2,jsons/s23.json,-0.7132311076444549,1818,825,1364,768,9-3-2023,10-16-32,1,23,k2,k2_small_flashdrive,flashdrive,L,classroom,0,scaled,k2_small_flashdrive_L.png,small,c,1,1479,23,1,k2_small_flashdrive_L.png,288192,375891,33.0,Man
338746,OSSe5,v2,jsons/s1.json,-0.26928726244183804,1024,651,1024,768,9-2-2023,10-56-39,1,0,c8,c8_large_pot,pot,L,kitchen,0,scaled,c8_large_pot_L.png,large,c,1,1483,0,1,c8_large_pot_L.png,453128,587794,36.0,Man
338746,OSSe5,v2,jsons/s1.json,1.5781719578899367,1024,651,1024,768,9-2-2023,10-56-39,1,1,c7,c7_large_notebook,notebook,R,classroom,1,scaled,c7_large_notebook_R.png,large,m,1,2633,1,1,c7_large_notebook_R.png,453128,587794,36.0,Man
338746,OSSe5,v2,jsons/s1.json,-0.6950061262574209,1024,651,1024,768,9-2-2023,10-56-39,1,2,k1,k1_small_binderclip,binderclip,R,classroom,0,scaled,k1_small_binderclip_R.png,small,m,1,1218,2,1,k1_small_binderclip_R.png,453128,587794,36.0,Man
338746,OSSe5,v2,jsons/s1.json,-0.8363769187697654,1024,651,1024,768,9-2-2023,10-56-39,1,3,c3,c3_large_eraser,eraser,R,classroom,1,misscaled,c3_large_eraser_R.png,large,m,1,1130,3,1,c3_large_eraser_R.png,453128,587794,36.0,Man
338746,OSSe5,v2,jsons/s1.json,-0.6307466751154461,1024,651,1024,768,9-2-2023,10-56-39,1,4,k10,k10_small_sponge,sponge,L,kitchen,1,scaled,k10_small_sponge_L.png,small,c,1,1258,4,4,k10_small_sponge_L.png,453128,587794,36.0,Man
338746,OSSe5,v2,jsons/s1.json,0.4359602138413351,1024,651,1024,768,9-2-2023,10-56-39,1,5,c6,c6_large_laptop,laptop,L,classroom,1,scaled,c6_large_laptop_L.png,large,c,1,1922,5,4,c6_large_laptop_L.png,453128,587794,36.0,Man
338746,OSSe5,v2,jsons/s1.json,0.6303450535458087,1024,651,1024,768,9-2-2023,10-56-39,1,6,k2,k2_small_clipboard,clipboard,R,classroom,0,misscaled,k2_small_clipboard_R.png,small,m,1,2043,6,3,k2_small_clipboard_R.png,453128,587794,36.0,Man
338746,OSSe5,v2,jsons/s1.json,-0.2178797015282582,1024,651,1024,768,9-2-2023,10-56-39,1,7,c10,c10_large_sponge,sponge,L,kitchen,0,misscaled,c10_large_sponge_L.png,large,c,1,1515,7,1,c10_large_sponge_L.png,453128,587794,36.0,Man
338746,OSSe5,v2,jsons/s1.json,2.389447528557368,1024,651,1024,768,9-2-2023,10-56-39,1,8,c11,c11_large_spoon,spoon,R,kitchen,0,misscaled,c11_large_spoon_R.png,large,m,1,3138,8,1,c11_large_spoon_R.png,453128,587794,36.0,Man
338746,OSSe5,v2,jsons/s1.json,-0.42350994518257745,1024,651,1024,768,9-2-2023,10-56-39,1,9,k8,k8_small_pot,pot,L,kitchen,1,misscaled,k8_small_pot_L.png,small,c,1,1387,9,3,k8_small_pot_L.png,453128,587794,36.0,Man
338746,OSSe5,v2,jsons/s1.json,-0.37210238426899767,1024,651,1024,768,9-2-2023,10-56-39,1,10,k4,k4_small_flashdrive,flashdrive,L,classroom,0,scaled,k4_small_flashdrive_L.png,small,m,0,1419,10,1,k4_small_flashdrive_L.png,453128,587794,36.0,Man
338746,OSSe5,v2,jsons/s1.json,-0.6435985653438411,1024,651,1024,768,9-2-2023,10-56-39,1,11,c9,c9_large_saltshaker,saltshaker,R,kitchen,0,misscaled,c9_large_saltshaker_R.png,large,m,1,1250,11,1,c9_large_saltshaker_R.png,453128,587794,36.0,Man
338746,OSSe5,v2,jsons/s1.json,-0.7191034204356614,1024,651,1024,768,9-2-2023,10-56-39,1,12,k7,k7_small_notebook,notebook,R,classroom,0,misscaled,k7_small_notebook_R.png,small,m,1,1203,12,3,k7_small_notebook_R.png,453128,587794,36.0,Man
338746,OSSe5,v2,jsons/s1.json,-0.39780616472578756,1024,651,1024,768,9-2-2023,10-56-39,1,13,c0,c0_small_toaster,toaster,R,kitchen,0,misscaled,c0_small_toaster_R.png,small,m,1,1403,13,2,c0_small_toaster_R.png,453128,587794,36.0,Man
338746,OSSe5,v2,jsons/s1.json,0.28013104482204626,1024,651,1024,768,9-2-2023,10-56-39,1,14,c2,c2_large_clipboard,clipboard,L,classroom,1,scaled,c2_large_clipboard_L.png,large,c,1,1825,14,1,c2_large_clipboard_L.png,453128,587794,36.0,Man
338746,OSSe5,v2,jsons/s1.json,1.1685179568598474,1024,651,1024,768,9-2-2023,10-56-39,1,15,k0,k0_large_toaster,toaster,R,kitchen,1,scaled,k0_large_toaster_R.png,large,m,1,2378,15,2,k0_large_toaster_R.png,453128,587794,36.0,Man
338746,OSSe5,v2,jsons/s1.json,-0.7978212480845805,1024,651,1024,768,9-2-2023,10-56-39,1,16,k5,k5_small_kettle,kettle,L,kitchen,1,misscaled,k5_small_kettle_L.png,small,c,1,1154,16,1,k5_small_kettle_L.png,453128,587794,36.0,Man
338746,OSSe5,v2,jsons/s1.json,1.0528509448042929,1024,651,1024,768,9-2-2023,10-56-39,1,17,c4,c4_large_flashdrive,flashdrive,R,classroom,1,misscaled,c4_large_flashdrive_R.png,large,m,1,2306,17,1,c4_large_flashdrive_R.png,453128,587794,36.0,Man
338746,OSSe5,v2,jsons/s1.json,2.211127551638388,1024,651,1024,768,9-2-2023,10-56-39,1,18,k3,k3_small_eraser,eraser,L,classroom,0,scaled,k3_small_eraser_L.png,small,c,1,3027,18,1,k3_small_eraser_L.png,453128,587794,36.0,Man
338746,OSSe5,v2,jsons/s1.json,-1.1560676882010898,1024,651,1024,768,9-2-2023,10-56-39,1,19,k11,k11_small_spoon,spoon,L,kitchen,1,scaled,k11_small_spoon_L.png,small,c,1,931,19,3,k11_small_spoon_L.png,453128,587794,36.0,Man
338746,OSSe5,v2,jsons/s1.json,-0.7191034204356614,1024,651,1024,768,9-2-2023,10-56-39,1,20,k6,k6_small_laptop,laptop,L,classroom,0,misscaled,k6_small_laptop_L.png,small,c,1,1203,20,1,k6_small_laptop_L.png,453128,587794,36.0,Man
338746,OSSe5,v2,jsons/s1.json,-0.6178947848870512,1024,651,1024,768,9-2-2023,10-56-39,1,21,k9,k9_small_saltshaker,saltshaker,L,kitchen,1,scaled,k9_small_saltshaker_L.png,small,c,1,1266,21,4,k9_small_saltshaker_L.png,453128,587794,36.0,Man
338746,OSSe5,v2,jsons/s1.json,-0.5552418200236258,1024,651,1024,768,9-2-2023,10-56-39,1,22,c5,c5_large_kettle,kettle,R,kitchen,0,scaled,c5_large_kettle_R.png,large,m,1,1305,22,4,c5_large_kettle_R.png,453128,587794,36.0,Man
338746,OSSe5,v2,jsons/s1.json,-0.6950061262574209,1024,651,1024,768,9-2-2023,10-56-39,1,23,c1,c1_large_binderclip,binderclip,R,classroom,1,misscaled,c1_large_binderclip_R.png,large,m,1,1218,23,1,c1_large_binderclip_R.png,453128,587794,36.0,Man
673241,OSSe5,v2,jsons/s9.json,0.6276200553712515,1280,875,1280,1024,9-2-2023,16-57-8,1,0,k10,k10_small_clipboard,clipboard,R,classroom,0,misscaled,k10_small_clipboard_R.png,small,m,1,2533,0,2,k10_small_clipboard_R.png,343659,519048,25.0,Woman
673241,OSSe5,v2,jsons/s9.json,3.266734117033699,1280,875,1280,1024,9-2-2023,16-57-8,1,1,c2,c2_small_laptop,laptop,R,classroom,1,misscaled,c2_small_laptop_R.png,small,m,1,4400,1,1,c2_small_laptop_R.png,343659,519048,25.0,Woman
673241,OSSe5,v2,jsons/s9.json,-0.5668370319907025,1280,875,1280,1024,9-2-2023,16-57-8,1,2,k0,k0_large_flashdrive,flashdrive,R,classroom,0,misscaled,k0_large_flashdrive_R.png,large,m,1,1688,2,2,k0_large_flashdrive_R.png,343659,519048,25.0,Woman
673241,OSSe5,v2,jsons/s9.json,0.4212404876140382,1280,875,1280,1024,9-2-2023,16-57-8,1,3,c4,c4_small_pot,pot,R,kitchen,0,misscaled,c4_small_pot_R.png,small,m,1,2387,3,3,c4_small_pot_R.png,343659,519048,25.0,Woman
673241,OSSe5,v2,jsons/s9.json,-0.03109829103190886,1280,875,1280,1024,9-2-2023,16-57-8,1,4,k2,k2_large_laptop,laptop,L,classroom,0,scaled,k2_large_laptop_L.png,large,c,1,2067,4,4,k2_large_laptop_L.png,343659,519048,25.0,Woman
673241,OSSe5,v2,jsons/s9.json,-0.5300845062257192,1280,875,1280,1024,9-2-2023,16-57-8,1,5,c0,c0_small_flashdrive,flashdrive,L,classroom,1,scaled,c0_small_flashdrive_L.png,small,c,1,1714,5,4,c0_small_flashdrive_L.png,343659,519048,25.0,Woman
673241,OSSe5,v2,jsons/s9.json,-0.18941686355799034,1280,875,1280,1024,9-2-2023,16-57-8,1,6,c1,c1_small_kettle,kettle,R,kitchen,0,misscaled,c1_small_kettle_R.png,small,m,1,1955,6,2,c1_small_kettle_R.png,343659,519048,25.0,Woman
673241,OSSe5,v2,jsons/s9.json,-0.5527014451580166,1280,875,1280,1024,9-2-2023,16-57-8,1,7,c8,c8_small_toaster,toaster,R,kitchen,0,misscaled,c8_small_toaster_R.png,small,m,1,1698,7,3,c8_small_toaster_R.png,343659,519048,25.0,Woman
673241,OSSe5,v2,jsons/s9.json,0.3307727318848488,1280,875,1280,1024,9-2-2023,16-57-8,1,8,c11,c11_large_eraser,eraser,R,classroom,1,misscaled,c11_large_eraser_R.png,large,m,1,2323,8,1,c11_large_eraser_R.png,343659,519048,25.0,Woman
673241,OSSe5,v2,jsons/s9.json,-0.7548403368654242,1280,875,1280,1024,9-2-2023,16-57-8,1,9,k7,k7_large_spoon,spoon,R,kitchen,1,misscaled,k7_large_spoon_R.png,large,m,1,1555,9,2,k7_large_spoon_R.png,343659,519048,25.0,Woman
673241,OSSe5,v2,jsons/s9.json,-0.41699981156423244,1280,875,1280,1024,9-2-2023,16-57-8,1,10,k9,k9_small_binderclip,binderclip,L,classroom,0,scaled,k9_small_binderclip_L.png,small,c,1,1794,10,3,k9_small_binderclip_L.png,343659,519048,25.0,Woman
673241,OSSe5,v2,jsons/s9.json,-0.6191387032716401,1280,875,1280,1024,9-2-2023,16-57-8,1,11,k1,k1_large_kettle,kettle,L,kitchen,1,scaled,k1_large_kettle_L.png,large,c,1,1651,11,4,k1_large_kettle_L.png,343659,519048,25.0,Woman
673241,OSSe5,v2,jsons/s9.json,-0.12156604676109828,1280,875,1280,1024,9-2-2023,16-57-8,1,12,c6,c6_small_sponge,sponge,L,kitchen,0,scaled,c6_small_sponge_L.png,small,c,1,2003,12,4,c6_small_sponge_L.png,343659,519048,25.0,Woman
673241,OSSe5,v2,jsons/s9.json,-0.46223368942882714,1280,875,1280,1024,9-2-2023,16-57-8,1,13,k5,k5_large_saltshaker,saltshaker,R,kitchen,1,misscaled,k5_large_saltshaker_R.png,large,m,1,1762,13,2,k5_large_saltshaker_R.png,343659,519048,25.0,Woman
673241,OSSe5,v2,jsons/s9.json,-1.027657162736261,1280,875,1280,1024,9-2-2023,16-57-8,1,14,k6,k6_large_sponge,sponge,R,kitchen,1,misscaled,k6_large_sponge_R.png,large,m,1,1362,14,2,k6_large_sponge_R.png,343659,519048,25.0,Woman
673241,OSSe5,v2,jsons/s9.json,-0.5060540086101533,1280,875,1280,1024,9-2-2023,16-57-8,1,15,c7,c7_small_spoon,spoon,R,kitchen,0,scaled,c7_small_spoon_R.png,small,m,1,1731,15,4,c7_small_spoon_R.png,343659,519048,25.0,Woman
673241,OSSe5,v2,jsons/s9.json,-0.3943828726319351,1280,875,1280,1024,9-2-2023,16-57-8,1,16,k8,k8_large_toaster,toaster,L,kitchen,1,scaled,k8_large_toaster_L.png,large,c,1,1810,16,4,k8_large_toaster_L.png,343659,519048,25.0,Woman
673241,OSSe5,v2,jsons/s9.json,0.8735792662599853,1280,875,1280,1024,9-2-2023,16-57-8,1,17,c3,c3_small_notebook,notebook,L,classroom,1,misscaled,c3_small_notebook_L.png,small,c,1,2707,17,4,c3_small_notebook_L.png,343659,519048,25.0,Woman
673241,OSSe5,v2,jsons/s9.json,-0.7336369566163954,1280,875,1280,1024,9-2-2023,16-57-8,1,18,c10,c10_large_clipboard,clipboard,R,classroom,1,scaled,c10_large_clipboard_R.png,large,m,1,1570,18,3,c10_large_clipboard_R.png,343659,519048,25.0,Woman
673241,OSSe5,v2,jsons/s9.json,-0.19083042224125893,1280,875,1280,1024,9-2-2023,16-57-8,1,19,c9,c9_large_binderclip,binderclip,L,classroom,1,misscaled,c9_large_binderclip_L.png,large,c,1,1954,19,1,c9_large_binderclip_L.png,343659,519048,25.0,Woman
673241,OSSe5,v2,jsons/s9.json,0.4876777457276617,1280,875,1280,1024,9-2-2023,16-57-8,1,20,k4,k4_large_pot,pot,L,kitchen,1,scaled,k4_large_pot_L.png,large,m,0,2434,20,3,k4_large_pot_L.png,343659,519048,25.0,Woman
673241,OSSe5,v2,jsons/s9.json,-0.4961590978272732,1280,875,1280,1024,9-2-2023,16-57-8,1,21,c5,c5_small_saltshaker,saltshaker,L,kitchen,0,scaled,c5_small_saltshaker_L.png,small,c,1,1738,21,2,c5_small_saltshaker_L.png,343659,519048,25.0,Woman
673241,OSSe5,v2,jsons/s9.json,2.3422667381760447,1280,875,1280,1024,9-2-2023,16-57-8,1,22,k3,k3_large_notebook,notebook,L,classroom,0,scaled,k3_large_notebook_L.png,large,c,1,3746,22,4,k3_large_notebook_L.png,343659,519048,25.0,Woman
673241,OSSe5,v2,jsons/s9.json,-0.7562538955486928,1280,875,1280,1024,9-2-2023,16-57-8,1,23,k11,k11_small_eraser,eraser,L,classroom,0,scaled,k11_small_eraser_L.png,small,c,1,1554,23,4,k11_small_eraser_L.png,343659,519048,25.0,Woman
228531,OSSe5,v2,jsons/s6.json,0.29377058396457867,1366,619,1366,768,9-2-2023,13-6-41,1,0,k6,k6_small_binderclip,binderclip,L,classroom,0,scaled,k6_small_binderclip_L.png,small,c,1,1547,0,4,k6_small_binderclip_L.png,280604,337167,25.0,Woman
228531,OSSe5,v2,jsons/s6.json,-0.32145951100289377,1366,619,1366,768,9-2-2023,13-6-41,1,1,c7,c7_large_clipboard,clipboard,R,classroom,1,scaled,c7_large_clipboard_R.png,large,m,1,1260,1,1,c7_large_clipboard_R.png,280604,337167,25.0,Woman
228531,OSSe5,v2,jsons/s6.json,-0.14353582500184772,1366,619,1366,768,9-2-2023,13-6-41,1,2,k1,k1_large_pot,pot,R,kitchen,1,scaled,k1_large_pot_R.png,large,m,1,1343,2,1,k1_large_pot_R.png,280604,337167,25.0,Woman
228531,OSSe5,v2,jsons/s6.json,2.9154653788956546,1366,619,1366,768,9-2-2023,13-6-41,1,3,c4,c4_small_spoon,spoon,R,kitchen,0,scaled,c4_small_spoon_R.png,small,m,1,2770,3,4,c4_small_spoon_R.png,280604,337167,25.0,Woman
228531,OSSe5,v2,jsons/s6.json,0.42882109261597506,1366,619,1366,768,9-2-2023,13-6-41,1,4,k5,k5_large_toaster,toaster,L,kitchen,1,scaled,k5_large_toaster_L.png,large,c,1,1610,4,1,k5_large_toaster_L.png,280604,337167,25.0,Woman
228531,OSSe5,v2,jsons/s6.json,-0.16282875480919007,1366,619,1366,768,9-2-2023,13-6-41,1,5,c1,c1_small_pot,pot,R,kitchen,0,misscaled,c1_small_pot_R.png,small,m,1,1334,5,1,c1_small_pot_R.png,280604,337167,25.0,Woman
228531,OSSe5,v2,jsons/s6.json,2.733254375159644,1366,619,1366,768,9-2-2023,13-6-41,1,6,k10,k10_small_kettle,kettle,R,kitchen,1,misscaled,k10_small_kettle_R.png,small,m,1,2685,6,1,k10_small_kettle_R.png,280604,337167,25.0,Woman
228531,OSSe5,v2,jsons/s6.json,0.05153713193905818,1366,619,1366,768,9-2-2023,13-6-41,1,7,k9,k9_small_flashdrive,flashdrive,L,classroom,0,scaled,k9_small_flashdrive_L.png,small,c,1,1434,7,2,k9_small_flashdrive_L.png,280604,337167,25.0,Woman
228531,OSSe5,v2,jsons/s6.json,-0.7437603078969428,1366,619,1366,768,9-2-2023,13-6-41,1,8,c8,c8_large_eraser,eraser,R,classroom,1,misscaled,c8_large_eraser_R.png,large,m,1,1063,8,1,c8_large_eraser_R.png,280604,337167,25.0,Woman
228531,OSSe5,v2,jsons/s6.json,-0.3879129358948507,1366,619,1366,768,9-2-2023,13-6-41,1,9,c6,c6_large_binderclip,binderclip,R,classroom,1,misscaled,c6_large_binderclip_R.png,large,m,1,1229,9,1,c6_large_binderclip_R.png,280604,337167,25.0,Woman
228531,OSSe5,v2,jsons/s6.json,-0.842368615801137,1366,619,1366,768,9-2-2023,13-6-41,1,10,c10,c10_large_kettle,kettle,R,kitchen,0,scaled,c10_large_kettle_R.png,large,m,1,1017,10,1,c10_large_kettle_R.png,280604,337167,25.0,Woman
228531,OSSe5,v2,jsons/s6.json,-0.2764426747857616,1366,619,1366,768,9-2-2023,13-6-41,1,11,k7,k7_small_clipboard,clipboard,R,classroom,0,misscaled,k7_small_clipboard_R.png,small,m,1,1281,11,3,k7_small_clipboard_R.png,280604,337167,25.0,Woman
228531,OSSe5,v2,jsons/s6.json,-0.36218902948506093,1366,619,1366,768,9-2-2023,13-6-41,1,12,c9,c9_large_flashdrive,flashdrive,L,classroom,1,misscaled,c9_large_flashdrive_L.png,large,c,1,1241,12,3,c9_large_flashdrive_L.png,280604,337167,25.0,Woman
228531,OSSe5,v2,jsons/s6.json,-0.09208801218226814,1366,619,1366,768,9-2-2023,13-6-41,1,13,k2,k2_large_saltshaker,saltshaker,L,kitchen,1,misscaled,k2_large_saltshaker_L.png,large,c,1,1367,13,2,k2_large_saltshaker_L.png,280604,337167,25.0,Woman
228531,OSSe5,v2,jsons/s6.json,-0.895960087488199,1366,619,1366,768,9-2-2023,13-6-41,1,14,k0,k0_large_notebook,notebook,L,classroom,0,scaled,k0_large_notebook_L.png,large,c,1,992,14,4,k0_large_notebook_L.png,280604,337167,25.0,Woman
228531,OSSe5,v2,jsons/s6.json,-0.8616615456084793,1366,619,1366,768,9-2-2023,13-6-41,1,15,k3,k3_large_sponge,sponge,L,kitchen,1,misscaled,k3_large_sponge_L.png,large,c,1,1008,15,2,k3_large_sponge_L.png,280604,337167,25.0,Woman
228531,OSSe5,v2,jsons/s6.json,-0.18212168461653241,1366,619,1366,768,9-2-2023,13-6-41,1,16,k11,k11_small_laptop,laptop,R,classroom,0,misscaled,k11_small_laptop_R.png,small,m,1,1325,16,1,k11_small_laptop_R.png,280604,337167,25.0,Woman
228531,OSSe5,v2,jsons/s6.json,-0.8552305690060319,1366,619,1366,768,9-2-2023,13-6-41,1,17,k8,k8_small_eraser,eraser,R,classroom,0,scaled,k8_small_eraser_R.png,small,m,1,1011,17,3,k8_small_eraser_R.png,280604,337167,25.0,Woman
228531,OSSe5,v2,jsons/s6.json,0.5402913537250642,1366,619,1366,768,9-2-2023,13-6-41,1,18,c2,c2_small_saltshaker,saltshaker,L,kitchen,0,scaled,c2_small_saltshaker_L.png,small,c,1,1662,18,1,c2_small_saltshaker_L.png,280604,337167,25.0,Woman
228531,OSSe5,v2,jsons/s6.json,-0.40506220683471056,1366,619,1366,768,9-2-2023,13-6-41,1,19,c11,c11_large_laptop,laptop,R,classroom,1,scaled,c11_large_laptop_R.png,large,m,1,1221,19,4,c11_large_laptop_R.png,280604,337167,25.0,Woman
228531,OSSe5,v2,jsons/s6.json,0.3066325371694736,1366,619,1366,768,9-2-2023,13-6-41,1,20,c5,c5_small_toaster,toaster,L,kitchen,0,misscaled,c5_small_toaster_L.png,small,c,1,1553,20,1,c5_small_toaster_L.png,280604,337167,25.0,Woman
228531,OSSe5,v2,jsons/s6.json,-0.5379690566186245,1366,619,1366,768,9-2-2023,13-6-41,1,21,c0,c0_small_notebook,notebook,L,classroom,1,misscaled,c0_small_notebook_L.png,small,c,1,1159,21,3,c0_small_notebook_L.png,280604,337167,25.0,Woman
228531,OSSe5,v2,jsons/s6.json,-1.0503035259469378,1366,619,1366,768,9-2-2023,13-6-41,1,22,c3,c3_small_sponge,sponge,L,kitchen,0,scaled,c3_small_sponge_L.png,small,c,1,920,22,2,c3_small_sponge_L.png,280604,337167,25.0,Woman
228531,OSSe5,v2,jsons/s6.json,0.8511218895100241,1366,619,1366,768,9-2-2023,13-6-41,1,23,k4,k4_large_spoon,spoon,L,kitchen,1,misscaled,k4_large_spoon_L.png,large,m,0,1807,23,4,k4_large_spoon_L.png,280604,337167,25.0,Woman
200467,OSSe5,v2,jsons/s3.json,0.47746135692316444,1920,963,1920,1080,9-3-2023,11-30-15,1,0,c10,c10_large_pot,pot,L,kitchen,0,scaled,c10_large_pot_L.png,large,c,1,1523,0,3,c10_large_pot_L.png,249610,299254,35.0,Woman
200467,OSSe5,v2,jsons/s3.json,-0.18767571765176663,1920,963,1920,1080,9-3-2023,11-30-15,1,1,k3,k3_small_binderclip,binderclip,L,classroom,0,scaled,k3_small_binderclip_L.png,small,c,1,1260,1,4,k3_small_binderclip_L.png,249610,299254,35.0,Woman
200467,OSSe5,v2,jsons/s3.json,-0.035933419269653086,1920,963,1920,1080,9-3-2023,11-30-15,1,2,c7,c7_large_kettle,kettle,R,kitchen,0,scaled,c7_large_kettle_R.png,large,m,1,1320,2,4,c7_large_kettle_R.png,249610,299254,35.0,Woman
200467,OSSe5,v2,jsons/s3.json,-0.903393558354069,1920,963,1920,1080,9-3-2023,11-30-15,1,3,k5,k5_small_eraser,eraser,L,classroom,0,scaled,k5_small_eraser_L.png,small,c,1,977,3,4,k5_small_eraser_L.png,249610,299254,35.0,Woman
200467,OSSe5,v2,jsons/s3.json,-0.33688897772751164,1920,963,1920,1080,9-3-2023,11-30-15,1,4,c3,c3_large_binderclip,binderclip,L,classroom,1,misscaled,c3_large_binderclip_L.png,large,c,1,1201,4,1,c3_large_binderclip_L.png,249610,299254,35.0,Woman
200467,OSSe5,v2,jsons/s3.json,-1.017200282140654,1920,963,1920,1080,9-3-2023,11-30-15,1,5,c5,c5_large_eraser,eraser,L,classroom,1,misscaled,c5_large_eraser_L.png,large,c,1,932,5,2,c5_large_eraser_L.png,249610,299254,35.0,Woman
200467,OSSe5,v2,jsons/s3.json,1.5902382117253306,1920,963,1920,1080,9-3-2023,11-30-15,1,6,k4,k4_small_clipboard,clipboard,L,classroom,0,misscaled,k4_small_clipboard_L.png,small,c,1,1963,6,4,k4_small_clipboard_L.png,249610,299254,35.0,Woman
200467,OSSe5,v2,jsons/s3.json,0.17397676015893734,1920,963,1920,1080,9-3-2023,11-30-15,1,7,c2,c2_small_toaster,toaster,L,kitchen,0,misscaled,c2_small_toaster_L.png,small,c,1,1403,7,1,c2_small_toaster_L.png,249610,299254,35.0,Woman
200467,OSSe5,v2,jsons/s3.json,-0.9008645200477003,1920,963,1920,1080,9-3-2023,11-30-15,1,8,k10,k10_small_pot,pot,R,kitchen,1,misscaled,k10_small_pot_R.png,small,m,1,978,8,1,k10_small_pot_R.png,249610,299254,35.0,Woman
200467,OSSe5,v2,jsons/s3.json,0.9073978690058195,1920,963,1920,1080,9-3-2023,11-30-15,1,9,k2,k2_large_toaster,toaster,L,kitchen,1,scaled,k2_large_toaster_L.png,large,c,1,1693,9,2,k2_large_toaster_L.png,249610,299254,35.0,Woman
200467,OSSe5,v2,jsons/s3.json,-0.6302574212662645,1920,963,1920,1080,9-3-2023,11-30-15,1,10,k1,k1_large_spoon,spoon,R,kitchen,1,misscaled,k1_large_spoon_R.png,large,m,1,1085,10,2,k1_large_spoon_R.png,249610,299254,35.0,Woman
200467,OSSe5,v2,jsons/s3.json,-1.161355465603662,1920,963,1920,1080,9-3-2023,11-30-15,1,11,k0,k0_large_sponge,sponge,R,kitchen,1,misscaled,k0_large_sponge_R.png,large,m,1,875,11,3,k0_large_sponge_R.png,249610,299254,35.0,Woman
200467,OSSe5,v2,jsons/s3.json,-0.2787210966810348,1920,963,1920,1080,9-3-2023,11-30-15,1,12,c4,c4_large_clipboard,clipboard,R,classroom,1,scaled,c4_large_clipboard_R.png,large,m,1,1224,12,4,c4_large_clipboard_R.png,249610,299254,35.0,Woman
200467,OSSe5,v2,jsons/s3.json,-0.29895340313198326,1920,963,1920,1080,9-3-2023,11-30-15,1,13,k8,k8_small_laptop,laptop,R,classroom,0,misscaled,k8_small_laptop_R.png,small,m,1,1216,13,1,k8_small_laptop_R.png,249610,299254,35.0,Woman
200467,OSSe5,v2,jsons/s3.json,-0.15732725797534394,1920,963,1920,1080,9-3-2023,11-30-15,1,14,c11,c11_large_saltshaker,saltshaker,L,kitchen,0,misscaled,c11_large_saltshaker_L.png,large,c,1,1272,14,1,c11_large_saltshaker_L.png,249610,299254,35.0,Woman
200467,OSSe5,v2,jsons/s3.json,-0.518979735786048,1920,963,1920,1080,9-3-2023,11-30-15,1,15,k7,k7_small_kettle,kettle,R,kitchen,1,misscaled,k7_small_kettle_R.png,small,m,1,1129,15,1,k7_small_kettle_R.png,249610,299254,35.0,Woman
200467,OSSe5,v2,jsons/s3.json,1.3322763044757375,1920,963,1920,1080,9-3-2023,11-30-15,1,16,c6,c6_large_flashdrive,flashdrive,R,classroom,1,misscaled,c6_large_flashdrive_R.png,large,m,1,1861,16,1,c6_large_flashdrive_R.png,249610,299254,35.0,Woman
200467,OSSe5,v2,jsons/s3.json,0.04752484484050937,1920,963,1920,1080,9-3-2023,11-30-15,1,17,c1,c1_small_spoon,spoon,R,kitchen,0,scaled,c1_small_spoon_R.png,small,m,1,1353,17,4,c1_small_spoon_R.png,249610,299254,35.0,Woman
200467,OSSe5,v2,jsons/s3.json,0.17397676015893734,1920,963,1920,1080,9-3-2023,11-30-15,1,18,k11,k11_small_saltshaker,saltshaker,L,kitchen,1,scaled,k11_small_saltshaker_L.png,small,c,1,1403,18,4,k11_small_saltshaker_L.png,249610,299254,35.0,Woman
200467,OSSe5,v2,jsons/s3.json,-0.19273379426450377,1920,963,1920,1080,9-3-2023,11-30-15,1,19,c9,c9_large_notebook,notebook,L,classroom,1,scaled,c9_large_notebook_L.png,large,c,1,1258,19,4,c9_large_notebook_L.png,249610,299254,35.0,Woman
200467,OSSe5,v2,jsons/s3.json,3.3858554092470077,1920,963,1920,1080,9-3-2023,11-30-15,1,20,k6,k6_small_flashdrive,flashdrive,L,classroom,0,scaled,k6_small_flashdrive_L.png,small,c,1,2673,20,4,k6_small_flashdrive_L.png,249610,299254,35.0,Woman
200467,OSSe5,v2,jsons/s3.json,-0.3824116672421457,1920,963,1920,1080,9-3-2023,11-30-15,1,21,c8,c8_large_laptop,laptop,R,classroom,1,scaled,c8_large_laptop_R.png,large,m,1,1183,21,4,c8_large_laptop_R.png,249610,299254,35.0,Woman
200467,OSSe5,v2,jsons/s3.json,-0.9463872095623345,1920,963,1920,1080,9-3-2023,11-30-15,1,22,c0,c0_small_sponge,sponge,R,kitchen,0,scaled,c0_small_sponge_R.png,small,m,1,960,22,3,c0_small_sponge_R.png,249610,299254,35.0,Woman
200467,OSSe5,v2,jsons/s3.json,-0.13962398983076402,1920,963,1920,1080,9-3-2023,11-30-15,1,23,k9,k9_small_notebook,notebook,R,classroom,0,misscaled,k9_small_notebook_R.png,small,m,1,1279,23,4,k9_small_notebook_R.png,249610,299254,35.0,Woman
874924,OSSe5,v2,jsons/s19.json,-0.6014024093929049,1920,931,1920,1080,9-5-2023,10-41-23,1,0,k11,k11_large_kettle,kettle,R,kitchen,1,scaled,k11_large_kettle_R.png,large,m,1,697,0,4,k11_large_kettle_R.png,313114,398215,62.0,Man
874924,OSSe5,v2,jsons/s19.json,2.6662761364228547,1920,931,1920,1080,9-5-2023,10-41-23,1,1,k4,k4_small_sponge,sponge,L,kitchen,1,scaled,k4_small_sponge_L.png,small,c,1,1469,1,4,k4_small_sponge_L.png,313114,398215,62.0,Man
874924,OSSe5,v2,jsons/s19.json,1.4599440307784355,1920,931,1920,1080,9-5-2023,10-41-23,1,2,c11,c11_small_kettle,kettle,R,kitchen,0,misscaled,c11_small_kettle_R.png,small,m,1,1184,2,2,c11_small_kettle_R.png,313114,398215,62.0,Man
874924,OSSe5,v2,jsons/s19.json,-0.29664482480905174,1920,931,1920,1080,9-5-2023,10-41-23,1,3,k1,k1_small_notebook,notebook,R,classroom,0,misscaled,k1_small_notebook_R.png,small,m,1,769,3,4,k1_small_notebook_R.png,313114,398215,62.0,Man
874924,OSSe5,v2,jsons/s19.json,-0.7537812016848315,1920,931,1920,1080,9-5-2023,10-41-23,1,4,c4,c4_large_sponge,sponge,L,kitchen,0,misscaled,c4_large_sponge_L.png,large,c,1,661,4,1,c4_large_sponge_L.png,313114,398215,62.0,Man
874924,OSSe5,v2,jsons/s19.json,-0.6394971074658866,1920,931,1920,1080,9-5-2023,10-41-23,1,5,c3,c3_large_saltshaker,saltshaker,L,kitchen,0,misscaled,c3_large_saltshaker_L.png,large,c,1,688,5,1,c3_large_saltshaker_L.png,313114,398215,62.0,Man
874924,OSSe5,v2,jsons/s19.json,-0.20775719597209455,1920,931,1920,1080,9-5-2023,10-41-23,1,6,c6,c6_large_toaster,toaster,L,kitchen,0,scaled,c6_large_toaster_L.png,large,c,1,790,6,3,c6_large_toaster_L.png,313114,398215,62.0,Man
874924,OSSe5,v2,jsons/s19.json,-0.6521953401568805,1920,931,1920,1080,9-5-2023,10-41-23,1,7,c9,c9_small_eraser,eraser,L,classroom,1,scaled,c9_small_eraser_L.png,small,c,1,685,7,2,c9_small_eraser_L.png,313114,398215,62.0,Man
874924,OSSe5,v2,jsons/s19.json,-0.7664794343758254,1920,931,1920,1080,9-5-2023,10-41-23,1,8,k8,k8_large_clipboard,clipboard,L,classroom,0,scaled,k8_large_clipboard_L.png,large,c,1,658,8,4,k8_large_clipboard_L.png,313114,398215,62.0,Man
874924,OSSe5,v2,jsons/s19.json,-0.7241519920725125,1920,931,1920,1080,9-5-2023,10-41-23,1,9,k10,k10_large_flashdrive,flashdrive,R,classroom,0,misscaled,k10_large_flashdrive_R.png,large,m,1,668,9,1,k10_large_flashdrive_R.png,313114,398215,62.0,Man
874924,OSSe5,v2,jsons/s19.json,-0.6860572939995309,1920,931,1920,1080,9-5-2023,10-41-23,1,10,c2,c2_large_pot,pot,L,kitchen,0,scaled,c2_large_pot_L.png,large,c,1,677,10,3,c2_large_pot_L.png,313114,398215,62.0,Man
874924,OSSe5,v2,jsons/s19.json,-0.7368502247635064,1920,931,1920,1080,9-5-2023,10-41-23,1,11,k6,k6_small_toaster,toaster,L,kitchen,1,misscaled,k6_small_toaster_L.png,small,c,1,665,11,3,k6_small_toaster_L.png,313114,398215,62.0,Man
874924,OSSe5,v2,jsons/s19.json,1.1255572365822633,1920,931,1920,1080,9-5-2023,10-41-23,1,12,k3,k3_small_saltshaker,saltshaker,R,kitchen,1,scaled,k3_small_saltshaker_R.png,small,m,1,1105,12,4,k3_small_saltshaker_R.png,313114,398215,62.0,Man
874924,OSSe5,v2,jsons/s19.json,-0.37283422095501506,1920,931,1920,1080,9-5-2023,10-41-23,1,13,k7,k7_large_binderclip,binderclip,R,classroom,0,misscaled,k7_large_binderclip_R.png,large,m,1,751,13,1,k7_large_binderclip_R.png,313114,398215,62.0,Man
874924,OSSe5,v2,jsons/s19.json,-0.8511343189824514,1920,931,1920,1080,9-5-2023,10-41-23,1,14,c1,c1_large_notebook,notebook,R,classroom,1,scaled,c1_large_notebook_R.png,large,m,1,638,14,4,c1_large_notebook_R.png,313114,398215,62.0,Man
874924,OSSe5,v2,jsons/s19.json,-0.6225661305445614,1920,931,1920,1080,9-5-2023,10-41-23,1,15,k9,k9_large_eraser,eraser,R,classroom,0,misscaled,k9_large_eraser_R.png,large,m,1,692,15,1,k9_large_eraser_R.png,313114,398215,62.0,Man
874924,OSSe5,v2,jsons/s19.json,1.0536005846666312,1920,931,1920,1080,9-5-2023,10-41-23,1,16,c10,c10_small_flashdrive,flashdrive,R,classroom,1,scaled,c10_small_flashdrive_R.png,small,m,1,1088,16,1,c10_small_flashdrive_R.png,313114,398215,62.0,Man
874924,OSSe5,v2,jsons/s19.json,1.4260820769357851,1920,931,1920,1080,9-5-2023,10-41-23,1,17,k0,k0_small_laptop,laptop,R,classroom,0,misscaled,k0_small_laptop_R.png,small,m,1,1176,17,1,k0_small_laptop_R.png,313114,398215,62.0,Man
874924,OSSe5,v2,jsons/s19.json,-0.8553670632127827,1920,931,1920,1080,9-5-2023,10-41-23,1,18,c0,c0_large_laptop,laptop,L,classroom,1,scaled,c0_large_laptop_L.png,large,c,1,637,18,4,c0_large_laptop_L.png,313114,398215,62.0,Man
874924,OSSe5,v2,jsons/s19.json,0.5879987193301889,1920,931,1920,1080,9-5-2023,10-41-23,1,19,c8,c8_small_clipboard,clipboard,R,classroom,1,misscaled,c8_small_clipboard_R.png,small,m,1,978,19,3,c8_small_clipboard_R.png,313114,398215,62.0,Man
874924,OSSe5,v2,jsons/s19.json,-0.7326174805331751,1920,931,1920,1080,9-5-2023,10-41-23,1,20,k2,k2_small_pot,pot,R,kitchen,1,misscaled,k2_small_pot_R.png,small,m,1,666,20,2,k2_small_pot_R.png,313114,398215,62.0,Man
874924,OSSe5,v2,jsons/s19.json,1.2948670057955152,1920,931,1920,1080,9-5-2023,10-41-23,1,21,c5,c5_large_spoon,spoon,L,kitchen,0,misscaled,c5_large_spoon_L.png,large,c,1,1145,21,1,c5_large_spoon_L.png,313114,398215,62.0,Man
874924,OSSe5,v2,jsons/s19.json,0.5668349981785324,1920,931,1920,1080,9-5-2023,10-41-23,1,22,c7,c7_small_binderclip,binderclip,L,classroom,1,scaled,c7_small_binderclip_L.png,small,c,1,973,22,4,c7_small_binderclip_L.png,313114,398215,62.0,Man
874924,OSSe5,v2,jsons/s19.json,-0.6818245497691996,1920,931,1920,1080,9-5-2023,10-41-23,1,23,k5,k5_small_spoon,spoon,L,kitchen,1,scaled,k5_small_spoon_L.png,small,c,1,678,23,3,k5_small_spoon_L.png,313114,398215,62.0,Man
855580,OSSe5,v2,jsons/s17.json,0.02101784234748362,1517,723,1366,768,9-3-2023,10-15-34,1,0,c6,c6_small_clipboard,clipboard,R,classroom,1,misscaled,c6_small_clipboard_R.png,small,m,1,1427,0,2,c6_small_clipboard_R.png,272568,1013555,40.0,Man
