subjID,experimentName,versionName,windowWidth,windowHeight,screenWidth,screenHeight,startDate,startTime,pracTries,trialNum,objectSize,objectCategory,object,misscaled,objectScene1SemanticCongruency,scene1ZoomName,scene1Category,scene1,scene2SizeCong,scene2SemCong,scene2ZoomName,scene2Category,scene2,keyPress,accuracy,RT,experimentTime,totalTime,age,gender
888375,OSSe2,v3,1162,1163,2560,1440,4-11-2023,13-13-35,1,2,small,kitchen,sponge.png,misscaled,1,zo,kitchen,k0_zo.png,1,1,zo,kitchen,k3_zo.png,c,1,257,82856,128131,32,Man
888375,OSSe2,v3,1162,1163,2560,1440,4-11-2023,13-13-35,1,4,small,classroom,paperclip.png,scaled,0,zi,kitchen,k1_zi.png,0,0,zi,bathroom,b0_zi.png,m,1,1027,82856,128131,32,Man
888375,OSSe2,v3,1162,1163,2560,1440,4-11-2023,13-13-35,1,5,large,bathroom,tissuebox.png,misscaled,0,zi,laundromat,l2_zi.png,1,1,zi,laundromat,l4_zi.png,m,0,882,82856,128131,32,Man
888375,OSSe2,v3,1162,1163,2560,1440,4-11-2023,13-13-35,1,6,small,kitchen,spoon.png,misscaled,0,zo,classroom,c1_zo.png,1,0,zo,laundromat,l0_zo.png,m,1,885,82856,128131,32,Man
888375,OSSe2,v3,1162,1163,2560,1440,4-11-2023,13-13-35,1,7,large,kitchen,kettle.png,scaled,0,zo,bathroom,b1_zo.png,1,0,zo,laundromat,l4_zo.png,m,1,798,82856,128131,32,Man
888375,OSSe2,v3,1162,1163,2560,1440,4-11-2023,13-13-35,1,8,large,bathroom,loofah.png,scaled,0,zo,kitchen,k1_zo.png,1,1,zo,kitchen,k2_zo.png,c,1,773,82856,128131,32,Man
888375,OSSe2,v3,1162,1163,2560,1440,4-11-2023,13-13-35,1,9,large,kitchen,toaster.png,misscaled,1,zi,kitchen,k2_zi.png,1,0,zi,bathroom,b3_zi.png,m,1,676,82856,128131,32,Man
888375,OSSe2,v3,1162,1163,2560,1440,4-11-2023,13-13-35,1,10,small,bathroom,floss.png,scaled,1,zi,bathroom,b2_zi.png,0,1,zi,bathroom,b1_zi.png,c,1,726,82856,128131,32,Man
888375,OSSe2,v3,1162,1163,2560,1440,4-11-2023,13-13-35,1,11,small,laundromat,socks.png,misscaled,0,zo,bathroom,b5_zo.png,1,1,zo,bathroom,b2_zo.png,c,1,740,82856,128131,32,Man
888375,OSSe2,v3,1162,1163,2560,1440,4-11-2023,13-13-35,1,12,large,bathroom,hairdryer.png,scaled,1,zo,bathroom,b0_zo.png,0,0,zo,classroom,c2_zo.png,m,1,535,82856,128131,32,Man
888375,OSSe2,v3,1162,1163,2560,1440,4-11-2023,13-13-35,1,13,large,laundromat,shorts.png,scaled,1,zo,laundromat,l5_zo.png,0,1,zo,laundromat,l1_zo.png,c,1,768,82856,128131,32,Man
888375,OSSe2,v3,1162,1163,2560,1440,4-11-2023,13-13-35,1,14,large,classroom,computer.png,misscaled,1,zi,classroom,c1_zi.png,1,1,zi,classroom,c4_zi.png,c,1,669,82856,128131,32,Man
888375,OSSe2,v3,1162,1163,2560,1440,4-11-2023,13-13-35,1,15,small,laundromat,tidepod.png,scaled,0,zi,classroom,c3_zi.png,1,0,zi,bathroom,b5_zi.png,m,1,680,82856,128131,32,Man
151275,OSSe2,v3,1920,929,1920,1080,4-14-2023,11-59-57,1,0,large,kitchen,toaster.png,misscaled,1,zi,kitchen,k1_zi.png,0,0,zi,bathroom,b5_zi.png,m,1,874,78548,187629,31,Woman
151275,OSSe2,v3,1920,929,1920,1080,4-14-2023,11-59-57,1,1,large,classroom,powerstrip.png,scaled,1,zo,classroom,c0_zo.png,0,0,zo,kitchen,k4_zo.png,m,1,549,78548,187629,31,Woman
151275,OSSe2,v3,1920,929,1920,1080,4-14-2023,11-59-57,1,2,small,classroom,binderclip.png,misscaled,1,zo,classroom,c3_zo.png,1,0,zo,bathroom,b4_zo.png,m,1,560,78548,187629,31,Woman
151275,OSSe2,v3,1920,929,1920,1080,4-14-2023,11-59-57,1,3,small,kitchen,saltshaker.png,scaled,1,zi,kitchen,k2_zi.png,1,0,zi,classroom,c4_zi.png,m,1,698,78548,187629,31,Woman
151275,OSSe2,v3,1920,929,1920,1080,4-14-2023,11-59-57,1,4,small,bathroom,floss.png,misscaled,1,zo,bathroom,b5_zo.png,0,0,zo,kitchen,k5_zo.png,m,1,592,78548,187629,31,Woman
151275,OSSe2,v3,1920,929,1920,1080,4-14-2023,11-59-57,1,5,large,bathroom,loofah.png,scaled,0,zo,laundromat,l2_zo.png,1,1,zo,laundromat,l3_zo.png,c,1,691,78548,187629,31,Woman
151275,OSSe2,v3,1920,929,1920,1080,4-14-2023,11-59-57,1,6,small,classroom,paperclip.png,scaled,0,zi,kitchen,k5_zi.png,0,0,zi,laundromat,l1_zi.png,c,0,681,78548,187629,31,Woman
151275,OSSe2,v3,1920,929,1920,1080,4-14-2023,11-59-57,1,7,large,bathroom,hairdryer.png,scaled,0,zo,laundromat,l4_zo.png,0,1,zo,laundromat,l1_zo.png,c,1,994,78548,187629,31,Woman
151275,OSSe2,v3,1920,929,1920,1080,4-14-2023,11-59-57,1,8,small,kitchen,spoon.png,scaled,0,zi,bathroom,b2_zi.png,1,0,zi,classroom,c1_zi.png,m,1,671,78548,187629,31,Woman
151275,OSSe2,v3,1920,929,1920,1080,4-14-2023,11-59-57,1,9,small,kitchen,sponge.png,misscaled,0,zo,laundromat,l5_zo.png,0,0,zo,classroom,c2_zo.png,m,1,599,78548,187629,31,Woman
151275,OSSe2,v3,1920,929,1920,1080,4-14-2023,11-59-57,1,10,large,bathroom,tissuebox.png,misscaled,0,zi,kitchen,k3_zi.png,0,1,zi,kitchen,k0_zi.png,c,1,756,78548,187629,31,Woman
151275,OSSe2,v3,1920,929,1920,1080,4-14-2023,11-59-57,1,11,small,classroom,eraser.png,misscaled,0,zo,bathroom,b2_zo.png,0,1,zo,bathroom,b1_zo.png,c,1,751,78548,187629,31,Woman
151275,OSSe2,v3,1920,929,1920,1080,4-14-2023,11-59-57,1,12,small,bathroom,lipstick.png,scaled,1,zi,bathroom,b0_zi.png,0,1,zi,bathroom,b3_zi.png,c,1,775,78548,187629,31,Woman
151275,OSSe2,v3,1920,929,1920,1080,4-14-2023,11-59-57,1,13,large,laundromat,detergent.png,scaled,1,zo,laundromat,l0_zo.png,0,0,zo,bathroom,b0_zo.png,m,1,710,78548,187629,31,Woman
151275,OSSe2,v3,1920,929,1920,1080,4-14-2023,11-59-57,1,14,large,laundromat,shorts.png,misscaled,0,zi,classroom,c2_zi.png,0,1,zi,classroom,c3_zi.png,c,1,847,78548,187629,31,Woman
151275,OSSe2,v3,1920,929,1920,1080,4-14-2023,11-59-57,1,15,large,kitchen,pot.png,misscaled,1,zi,kitchen,k4_zi.png,0,0,zi,classroom,c0_zi.png,m,1,636,78548,187629,31,Woman
454063,OSSe2,v3,1366,617,1366,768,4-17-2023,12-35-15,3,0,large,laundromat,detergent.png,misscaled,1,zi,laundromat,l4_zi.png,0,0,zi,kitchen,k5_zi.png,m,1,2721,78498,302772,42,Man
454063,OSSe2,v3,1366,617,1366,768,4-17-2023,12-35-15,3,1,small,laundromat,socks.png,scaled,1,zi,laundromat,l5_zi.png,1,1,zi,laundromat,l2_zi.png,c,1,571,78498,302772,42,Man
454063,OSSe2,v3,1366,617,1366,768,4-17-2023,12-35-15,3,2,large,kitchen,pot.png,scaled,0,zo,bathroom,b0_zo.png,1,1,zo,bathroom,b5_zo.png,c,1,794,78498,302772,42,Man
454063,OSSe2,v3,1366,617,1366,768,4-17-2023,12-35-15,3,3,large,kitchen,kettle.png,misscaled,0,zi,laundromat,l0_zi.png,1,1,zi,laundromat,l3_zi.png,c,1,573,78498,302772,42,Man
454063,OSSe2,v3,1366,617,1366,768,4-17-2023,12-35-15,3,4,large,classroom,computer.png,scaled,1,zo,classroom,c4_zo.png,0,0,zo,laundromat,l1_zo.png,m,1,772,78498,302772,42,Man
454063,OSSe2,v3,1366,617,1366,768,4-17-2023,12-35-15,3,5,small,classroom,binderclip.png,misscaled,1,zo,classroom,c5_zo.png,0,0,zo,bathroom,b3_zo.png,m,1,941,78498,302772,42,Man
454063,OSSe2,v3,1366,617,1366,768,4-17-2023,12-35-15,3,6,small,classroom,paperclip.png,misscaled,0,zo,kitchen,k2_zo.png,1,1,zo,kitchen,k4_zo.png,c,1,752,78498,302772,42,Man
454063,OSSe2,v3,1366,617,1366,768,4-17-2023,12-35-15,3,7,large,bathroom,tissuebox.png,misscaled,0,zi,laundromat,l1_zi.png,0,0,zi,kitchen,k3_zi.png,m,1,619,78498,302772,42,Man
454063,OSSe2,v3,1366,617,1366,768,4-17-2023,12-35-15,3,8,small,classroom,eraser.png,misscaled,0,zo,laundromat,l3_zo.png,1,0,zo,bathroom,b4_zo.png,m,1,687,78498,302772,42,Man
454063,OSSe2,v3,1366,617,1366,768,4-17-2023,12-35-15,3,9,small,kitchen,spoon.png,misscaled,1,zo,kitchen,k0_zo.png,1,0,zo,laundromat,l0_zo.png,m,1,844,78498,302772,42,Man
454063,OSSe2,v3,1366,617,1366,768,4-17-2023,12-35-15,3,10,small,bathroom,floss.png,scaled,0,zi,classroom,c2_zi.png,1,1,zi,classroom,c1_zi.png,c,1,593,78498,302772,42,Man
454063,OSSe2,v3,1366,617,1366,768,4-17-2023,12-35-15,3,11,small,bathroom,lipstick.png,scaled,1,zi,bathroom,b0_zi.png,1,1,zi,bathroom,b1_zi.png,c,1,772,78498,302772,42,Man
454063,OSSe2,v3,1366,617,1366,768,4-17-2023,12-35-15,3,12,large,bathroom,hairdryer.png,scaled,1,zo,bathroom,b1_zo.png,0,0,zo,kitchen,k1_zo.png,m,1,1689,78498,302772,42,Man
454063,OSSe2,v3,1366,617,1366,768,4-17-2023,12-35-15,3,13,large,bathroom,loofah.png,scaled,0,zo,laundromat,l4_zo.png,1,0,zo,classroom,c0_zo.png,m,1,874,78498,302772,42,Man
454063,OSSe2,v3,1366,617,1366,768,4-17-2023,12-35-15,3,14,large,classroom,powerstrip.png,misscaled,1,zi,classroom,c3_zi.png,1,1,zi,classroom,c0_zi.png,c,1,489,78498,302772,42,Man
454063,OSSe2,v3,1366,617,1366,768,4-17-2023,12-35-15,3,15,small,kitchen,sponge.png,scaled,0,zi,classroom,c4_zi.png,1,0,zi,bathroom,b2_zi.png,m,1,726,78498,302772,42,Man
961960,OSSe2,v3,1920,961,1920,1080,4-17-2023,14-35-52,1,0,large,kitchen,kettle.png,misscaled,1,zi,kitchen,k5_zi.png,0,1,zi,kitchen,k3_zi.png,c,1,585,76415,152915,29,Woman
961960,OSSe2,v3,1920,961,1920,1080,4-17-2023,14-35-52,1,1,small,bathroom,lipstick.png,scaled,0,zi,laundromat,l4_zi.png,1,1,zi,laundromat,l1_zi.png,c,1,663,76415,152915,29,Woman
961960,OSSe2,v3,1920,961,1920,1080,4-17-2023,14-35-52,1,2,small,bathroom,floss.png,scaled,0,zi,laundromat,l5_zi.png,1,0,zi,classroom,c1_zi.png,m,1,553,76415,152915,29,Woman
961960,OSSe2,v3,1920,961,1920,1080,4-17-2023,14-35-52,1,3,large,kitchen,toaster.png,scaled,1,zo,kitchen,k1_zo.png,0,1,zo,kitchen,k0_zo.png,c,1,446,76415,152915,29,Woman
961960,OSSe2,v3,1920,961,1920,1080,4-17-2023,14-35-52,1,4,large,laundromat,detergent.png,misscaled,0,zi,kitchen,k1_zi.png,1,0,zi,classroom,c0_zi.png,m,1,483,76415,152915,29,Woman
961960,OSSe2,v3,1920,961,1920,1080,4-17-2023,14-35-52,1,5,large,laundromat,shirt.png,scaled,0,zo,bathroom,b1_zo.png,0,0,zo,classroom,c4_zo.png,m,1,491,76415,152915,29,Woman
961960,OSSe2,v3,1920,961,1920,1080,4-17-2023,14-35-52,1,6,small,bathroom,nailclipper.png,misscaled,0,zo,classroom,c3_zo.png,1,0,zo,kitchen,k2_zo.png,m,1,542,76415,152915,29,Woman
961960,OSSe2,v3,1920,961,1920,1080,4-17-2023,14-35-52,1,7,small,kitchen,spoon.png,misscaled,1,zo,kitchen,k4_zo.png,1,1,zo,kitchen,k3_zo.png,c,1,439,76415,152915,29,Woman
961960,OSSe2,v3,1920,961,1920,1080,4-17-2023,14-35-52,1,8,small,classroom,paperclip.png,scaled,1,zi,classroom,c5_zi.png,1,0,zi,kitchen,k2_zi.png,m,1,482,76415,152915,29,Woman
961960,OSSe2,v3,1920,961,1920,1080,4-17-2023,14-35-52,1,9,small,classroom,eraser.png,misscaled,1,zo,classroom,c5_zo.png,1,1,zo,classroom,c0_zo.png,c,1,489,76415,152915,29,Woman
961960,OSSe2,v3,1920,961,1920,1080,4-17-2023,14-35-52,1,10,large,kitchen,pot.png,scaled,1,zo,kitchen,k5_zo.png,1,0,zo,bathroom,b5_zo.png,m,1,644,76415,152915,29,Woman
961960,OSSe2,v3,1920,961,1920,1080,4-17-2023,14-35-52,1,11,small,kitchen,saltshaker.png,scaled,1,zi,kitchen,k4_zi.png,0,0,zi,laundromat,l0_zi.png,m,1,684,76415,152915,29,Woman
961960,OSSe2,v3,1920,961,1920,1080,4-17-2023,14-35-52,1,12,small,kitchen,sponge.png,misscaled,0,zo,classroom,c1_zo.png,1,0,zo,laundromat,l1_zo.png,m,1,1013,76415,152915,29,Woman
961960,OSSe2,v3,1920,961,1920,1080,4-17-2023,14-35-52,1,13,large,bathroom,hairdryer.png,misscaled,1,zi,bathroom,b2_zi.png,0,0,zi,laundromat,l2_zi.png,c,0,610,76415,152915,29,Woman
961960,OSSe2,v3,1920,961,1920,1080,4-17-2023,14-35-52,1,14,large,bathroom,loofah.png,misscaled,0,zi,classroom,c2_zi.png,0,1,zi,classroom,c4_zi.png,c,1,539,76415,152915,29,Woman
961960,OSSe2,v3,1920,961,1920,1080,4-17-2023,14-35-52,1,15,large,laundromat,shorts.png,scaled,0,zo,bathroom,b0_zo.png,1,1,zo,bathroom,b2_zo.png,c,1,599,76415,152915,29,Woman
712322,OSSe2,v3,1339,608,1366,768,4-17-2023,11-14-50,1,0,small,kitchen,sponge.png,scaled,0,zi,laundromat,l1_zi.png,0,0,zi,classroom,c0_zi.png,m,1,1861,101122,696287,1998,Woman
712322,OSSe2,v3,1339,608,1366,768,4-17-2023,11-14-50,1,1,large,laundromat,shorts.png,misscaled,0,zi,bathroom,b5_zi.png,0,1,zi,bathroom,b1_zi.png,c,1,1698,101122,696287,1998,Woman
712322,OSSe2,v3,1339,608,1366,768,4-17-2023,11-14-50,1,2,small,classroom,eraser.png,scaled,0,zi,laundromat,l5_zi.png,1,0,zi,kitchen,k2_zi.png,c,0,2161,101122,696287,1998,Woman
712322,OSSe2,v3,1339,608,1366,768,4-17-2023,11-14-50,1,3,small,kitchen,spoon.png,scaled,1,zi,kitchen,k5_zi.png,0,0,zi,bathroom,b4_zi.png,c,0,1814,101122,696287,1998,Woman
712322,OSSe2,v3,1339,608,1366,768,4-17-2023,11-14-50,1,4,large,classroom,computer.png,misscaled,0,zi,kitchen,k4_zi.png,0,0,zi,bathroom,b2_zi.png,m,1,2133,101122,696287,1998,Woman
712322,OSSe2,v3,1339,608,1366,768,4-17-2023,11-14-50,1,5,small,kitchen,saltshaker.png,misscaled,0,zo,laundromat,l1_zo.png,0,1,zo,laundromat,l2_zo.png,m,0,1286,101122,696287,1998,Woman
712322,OSSe2,v3,1339,608,1366,768,4-17-2023,11-14-50,1,6,large,kitchen,pot.png,misscaled,1,zi,kitchen,k3_zi.png,0,1,zi,kitchen,k1_zi.png,c,1,2115,101122,696287,1998,Woman
712322,OSSe2,v3,1339,608,1366,768,4-17-2023,11-14-50,1,7,small,bathroom,lipstick.png,misscaled,0,zo,classroom,c0_zo.png,1,0,zo,kitchen,k1_zo.png,m,1,1652,101122,696287,1998,Woman
712322,OSSe2,v3,1339,608,1366,768,4-17-2023,11-14-50,1,8,small,classroom,paperclip.png,misscaled,1,zo,classroom,c3_zo.png,0,1,zo,classroom,c4_zo.png,c,1,1820,101122,696287,1998,Woman
712322,OSSe2,v3,1339,608,1366,768,4-17-2023,11-14-50,1,9,small,laundromat,coins.png,misscaled,1,zo,laundromat,l3_zo.png,0,1,zo,laundromat,l0_zo.png,c,1,1847,101122,696287,1998,Woman
712322,OSSe2,v3,1339,608,1366,768,4-17-2023,11-14-50,1,10,large,kitchen,kettle.png,misscaled,1,zi,kitchen,k0_zi.png,1,0,zi,classroom,c4_zi.png,m,1,1606,101122,696287,1998,Woman
712322,OSSe2,v3,1339,608,1366,768,4-17-2023,11-14-50,1,11,large,classroom,powerstrip.png,scaled,0,zo,bathroom,b2_zo.png,1,1,zo,bathroom,b4_zo.png,c,1,2185,101122,696287,1998,Woman
712322,OSSe2,v3,1339,608,1366,768,4-17-2023,11-14-50,1,12,large,bathroom,tissuebox.png,scaled,1,zo,bathroom,b3_zo.png,1,1,zo,bathroom,b0_zo.png,c,1,1642,101122,696287,1998,Woman
712322,OSSe2,v3,1339,608,1366,768,4-17-2023,11-14-50,1,13,large,classroom,notebook.png,scaled,0,zo,laundromat,l4_zo.png,1,0,zo,bathroom,b5_zo.png,m,1,1474,101122,696287,1998,Woman
712322,OSSe2,v3,1339,608,1366,768,4-17-2023,11-14-50,1,14,small,bathroom,nailclipper.png,scaled,1,zi,bathroom,b0_zi.png,0,0,zi,classroom,c3_zi.png,m,1,1345,101122,696287,1998,Woman
712322,OSSe2,v3,1339,608,1366,768,4-17-2023,11-14-50,1,15,large,kitchen,toaster.png,scaled,1,zo,kitchen,k0_zo.png,1,0,zo,classroom,c2_zo.png,m,1,1417,101122,696287,1998,Woman
477809,OSSe2,v3,1331,608,1364,768,4-17-2023,11-38-18,2,0,small,kitchen,sponge.png,misscaled,0,zo,bathroom,b4_zo.png,0,0,zo,classroom,c5_zo.png,m,1,1160,151835,352360,32,Man
477809,OSSe2,v3,1331,608,1364,768,4-17-2023,11-38-18,2,1,small,classroom,paperclip.png,scaled,0,zi,kitchen,k5_zi.png,0,1,zi,kitchen,k3_zi.png,c,1,1116,151835,352360,32,Man
477809,OSSe2,v3,1331,608,1364,768,4-17-2023,11-38-18,2,2,large,classroom,notebook.png,misscaled,1,zi,classroom,c2_zi.png,0,1,zi,classroom,c1_zi.png,c,1,957,151835,352360,32,Man
477809,OSSe2,v3,1331,608,1364,768,4-17-2023,11-38-18,2,3,small,kitchen,spoon.png,scaled,1,zi,kitchen,k1_zi.png,1,0,zi,bathroom,b0_zi.png,c,0,727,151835,352360,32,Man
477809,OSSe2,v3,1331,608,1364,768,4-17-2023,11-38-18,2,4,large,bathroom,loofah.png,scaled,1,zo,bathroom,b2_zo.png,0,1,zo,bathroom,b1_zo.png,c,1,1464,151835,352360,32,Man
477809,OSSe2,v3,1331,608,1364,768,4-17-2023,11-38-18,2,5,large,bathroom,hairdryer.png,scaled,0,zo,classroom,c4_zo.png,1,1,zo,classroom,c3_zo.png,m,0,16310,151835,352360,32,Man
477809,OSSe2,v3,1331,608,1364,768,4-17-2023,11-38-18,2,6,small,laundromat,coins.png,misscaled,0,zo,kitchen,k0_zo.png,0,1,zo,kitchen,k1_zo.png,c,1,7725,151835,352360,32,Man
477809,OSSe2,v3,1331,608,1364,768,4-17-2023,11-38-18,2,7,large,kitchen,toaster.png,misscaled,0,zi,bathroom,b5_zi.png,1,0,zi,classroom,c0_zi.png,m,1,8131,151835,352360,32,Man
477809,OSSe2,v3,1331,608,1364,768,4-17-2023,11-38-18,2,8,large,classroom,computer.png,scaled,1,zo,classroom,c2_zo.png,0,0,zo,laundromat,l4_zo.png,m,1,3775,151835,352360,32,Man
477809,OSSe2,v3,1331,608,1364,768,4-17-2023,11-38-18,2,9,small,bathroom,lipstick.png,scaled,0,zi,laundromat,l3_zi.png,1,1,zi,laundromat,l5_zi.png,m,0,8108,151835,352360,32,Man
477809,OSSe2,v3,1331,608,1364,768,4-17-2023,11-38-18,2,10,small,bathroom,floss.png,misscaled,1,zo,bathroom,b0_zo.png,1,0,zo,classroom,c0_zo.png,m,1,7052,151835,352360,32,Man
477809,OSSe2,v3,1331,608,1364,768,4-17-2023,11-38-18,2,11,large,kitchen,kettle.png,misscaled,1,zi,kitchen,k2_zi.png,0,1,zi,kitchen,k0_zi.png,c,1,4394,151835,352360,32,Man
477809,OSSe2,v3,1331,608,1364,768,4-17-2023,11-38-18,2,12,small,bathroom,nailclipper.png,misscaled,1,zo,bathroom,b3_zo.png,1,1,zo,bathroom,b5_zo.png,c,1,4338,151835,352360,32,Man
477809,OSSe2,v3,1331,608,1364,768,4-17-2023,11-38-18,2,13,large,bathroom,tissuebox.png,scaled,0,zo,kitchen,k4_zo.png,0,0,zo,laundromat,l3_zo.png,c,0,4216,151835,352360,32,Man
477809,OSSe2,v3,1331,608,1364,768,4-17-2023,11-38-18,2,14,small,kitchen,saltshaker.png,scaled,1,zi,kitchen,k4_zi.png,0,0,zi,laundromat,l2_zi.png,m,1,2422,151835,352360,32,Man
477809,OSSe2,v3,1331,608,1364,768,4-17-2023,11-38-18,2,15,large,laundromat,shirt.png,misscaled,0,zi,bathroom,b3_zi.png,1,1,zi,bathroom,b4_zi.png,c,1,3842,151835,352360,32,Man
856136,OSSe2,v3,1280,587,1280,720,4-14-2023,9-48-6,2,0,small,classroom,paperclip.png,scaled,1,zi,classroom,c5_zi.png,1,1,zi,classroom,c1_zi.png,c,1,1160,77366,249203,49,Man
856136,OSSe2,v3,1280,587,1280,720,4-14-2023,9-48-6,2,1,small,kitchen,saltshaker.png,misscaled,1,zo,kitchen,k4_zo.png,1,0,zo,bathroom,b5_zo.png,m,1,1053,77366,249203,49,Man
856136,OSSe2,v3,1280,587,1280,720,4-14-2023,9-48-6,2,2,large,laundromat,shorts.png,scaled,0,zo,classroom,c1_zo.png,0,1,zo,classroom,c3_zo.png,c,1,1151,77366,249203,49,Man
856136,OSSe2,v3,1280,587,1280,720,4-14-2023,9-48-6,2,3,large,kitchen,kettle.png,scaled,1,zo,kitchen,k5_zo.png,1,1,zo,kitchen,k0_zo.png,c,1,661,77366,249203,49,Man
856136,OSSe2,v3,1280,587,1280,720,4-14-2023,9-48-6,2,4,small,laundromat,coins.png,misscaled,0,zo,kitchen,k3_zo.png,1,1,zo,kitchen,k1_zo.png,c,1,859,77366,249203,49,Man
856136,OSSe2,v3,1280,587,1280,720,4-14-2023,9-48-6,2,5,small,kitchen,spoon.png,scaled,1,zi,kitchen,k3_zi.png,0,0,zi,classroom,c4_zi.png,m,1,703,77366,249203,49,Man
856136,OSSe2,v3,1280,587,1280,720,4-14-2023,9-48-6,2,6,large,kitchen,pot.png,misscaled,0,zi,classroom,c3_zi.png,1,0,zi,bathroom,b5_zi.png,m,1,584,77366,249203,49,Man
856136,OSSe2,v3,1280,587,1280,720,4-14-2023,9-48-6,2,7,large,classroom,powerstrip.png,misscaled,1,zi,classroom,c2_zi.png,1,1,zi,classroom,c0_zi.png,c,1,581,77366,249203,49,Man
856136,OSSe2,v3,1280,587,1280,720,4-14-2023,9-48-6,2,8,large,bathroom,tissuebox.png,scaled,0,zo,kitchen,k2_zo.png,0,0,zo,laundromat,l4_zo.png,m,1,764,77366,249203,49,Man
856136,OSSe2,v3,1280,587,1280,720,4-14-2023,9-48-6,2,9,small,classroom,binderclip.png,misscaled,1,zo,classroom,c0_zo.png,0,1,zo,classroom,c5_zo.png,c,1,793,77366,249203,49,Man
856136,OSSe2,v3,1280,587,1280,720,4-14-2023,9-48-6,2,10,small,bathroom,nailclipper.png,scaled,0,zi,laundromat,l1_zi.png,0,0,zi,kitchen,k5_zi.png,m,1,873,77366,249203,49,Man
856136,OSSe2,v3,1280,587,1280,720,4-14-2023,9-48-6,2,11,large,laundromat,detergent.png,misscaled,0,zi,bathroom,b4_zi.png,1,1,zi,bathroom,b3_zi.png,c,1,730,77366,249203,49,Man
856136,OSSe2,v3,1280,587,1280,720,4-14-2023,9-48-6,2,12,large,laundromat,shirt.png,misscaled,1,zi,laundromat,l0_zi.png,0,0,zi,kitchen,k0_zi.png,m,1,837,77366,249203,49,Man
856136,OSSe2,v3,1280,587,1280,720,4-14-2023,9-48-6,2,13,small,bathroom,lipstick.png,scaled,0,zi,laundromat,l4_zi.png,0,1,zi,laundromat,l5_zi.png,c,1,684,77366,249203,49,Man
856136,OSSe2,v3,1280,587,1280,720,4-14-2023,9-48-6,2,14,large,classroom,notebook.png,scaled,1,zo,classroom,c2_zo.png,1,1,zo,classroom,c4_zo.png,c,1,579,77366,249203,49,Man
856136,OSSe2,v3,1280,587,1280,720,4-14-2023,9-48-6,2,15,small,laundromat,socks.png,misscaled,0,zo,bathroom,b4_zo.png,0,1,zo,bathroom,b2_zo.png,c,1,1168,77366,249203,49,Man
824552,OSSe2,v3,1600,789,1600,900,4-14-2023,10-51-12,1,0,small,classroom,binderclip.png,scaled,0,zi,kitchen,k3_zi.png,1,1,zi,kitchen,k5_zi.png,c,1,1146,84198,213332,41,Woman
824552,OSSe2,v3,1600,789,1600,900,4-14-2023,10-51-12,1,1,large,kitchen,kettle.png,scaled,0,zo,bathroom,b0_zo.png,0,1,zo,bathroom,b4_zo.png,c,1,1004,84198,213332,41,Woman
824552,OSSe2,v3,1600,789,1600,900,4-14-2023,10-51-12,1,2,large,laundromat,shorts.png,scaled,0,zo,bathroom,b3_zo.png,0,0,zo,classroom,c4_zo.png,m,1,1105,84198,213332,41,Woman
824552,OSSe2,v3,1600,789,1600,900,4-14-2023,10-51-12,1,3,small,bathroom,floss.png,misscaled,1,zo,bathroom,b1_zo.png,0,1,zo,bathroom,b5_zo.png,c,1,1018,84198,213332,41,Woman
824552,OSSe2,v3,1600,789,1600,900,4-14-2023,10-51-12,1,4,small,bathroom,lipstick.png,misscaled,0,zo,kitchen,k5_zo.png,1,1,zo,kitchen,k4_zo.png,c,1,1054,84198,213332,41,Woman
824552,OSSe2,v3,1600,789,1600,900,4-14-2023,10-51-12,1,5,large,bathroom,hairdryer.png,scaled,1,zo,bathroom,b2_zo.png,1,0,zo,kitchen,k3_zo.png,m,1,1066,84198,213332,41,Woman
824552,OSSe2,v3,1600,789,1600,900,4-14-2023,10-51-12,1,6,small,bathroom,nailclipper.png,scaled,1,zi,bathroom,b0_zi.png,0,0,zi,laundromat,l4_zi.png,c,0,918,84198,213332,41,Woman
824552,OSSe2,v3,1600,789,1600,900,4-14-2023,10-51-12,1,7,large,classroom,notebook.png,misscaled,1,zi,classroom,c2_zi.png,1,1,zi,classroom,c5_zi.png,c,1,1055,84198,213332,41,Woman
824552,OSSe2,v3,1600,789,1600,900,4-14-2023,10-51-12,1,8,small,kitchen,sponge.png,misscaled,0,zo,laundromat,l3_zo.png,1,1,zo,laundromat,l0_zo.png,c,1,1124,84198,213332,41,Woman
824552,OSSe2,v3,1600,789,1600,900,4-14-2023,10-51-12,1,9,small,kitchen,spoon.png,scaled,0,zi,classroom,c0_zi.png,1,1,zi,classroom,c4_zi.png,c,1,986,84198,213332,41,Woman
824552,OSSe2,v3,1600,789,1600,900,4-14-2023,10-51-12,1,10,small,laundromat,coins.png,misscaled,1,zo,laundromat,l5_zo.png,1,0,zo,classroom,c1_zo.png,m,1,1339,84198,213332,41,Woman
824552,OSSe2,v3,1600,789,1600,900,4-14-2023,10-51-12,1,11,large,classroom,computer.png,misscaled,1,zi,classroom,c3_zi.png,0,0,zi,kitchen,k1_zi.png,m,1,1107,84198,213332,41,Woman
824552,OSSe2,v3,1600,789,1600,900,4-14-2023,10-51-12,1,12,large,laundromat,shirt.png,misscaled,0,zi,kitchen,k2_zi.png,1,1,zi,kitchen,k4_zi.png,c,1,1016,84198,213332,41,Woman
824552,OSSe2,v3,1600,789,1600,900,4-14-2023,10-51-12,1,13,small,kitchen,saltshaker.png,scaled,1,zi,kitchen,k0_zi.png,0,0,zi,bathroom,b1_zi.png,m,1,782,84198,213332,41,Woman
824552,OSSe2,v3,1600,789,1600,900,4-14-2023,10-51-12,1,14,large,laundromat,detergent.png,scaled,1,zo,laundromat,l1_zo.png,0,1,zo,laundromat,l4_zo.png,c,1,920,84198,213332,41,Woman
824552,OSSe2,v3,1600,789,1600,900,4-14-2023,10-51-12,1,15,large,classroom,powerstrip.png,misscaled,0,zi,laundromat,l2_zi.png,0,0,zi,bathroom,b5_zi.png,m,1,1236,84198,213332,41,Woman
370504,OSSe2,v3,1366,625,1366,768,4-14-2023,11-1-42,3,0,large,kitchen,toaster.png,misscaled,1,zi,kitchen,k0_zi.png,1,0,zi,laundromat,l5_zi.png,c,0,2152,101388,388816,25,women
370504,OSSe2,v3,1366,625,1366,768,4-14-2023,11-1-42,3,1,small,classroom,binderclip.png,scaled,0,zi,laundromat,l2_zi.png,1,1,zi,laundromat,l1_zi.png,c,1,1926,101388,388816,25,women
370504,OSSe2,v3,1366,625,1366,768,4-14-2023,11-1-42,3,2,large,classroom,powerstrip.png,scaled,0,zo,laundromat,l0_zo.png,0,1,zo,laundromat,l3_zo.png,c,1,1694,101388,388816,25,women
370504,OSSe2,v3,1366,625,1366,768,4-14-2023,11-1-42,3,3,small,bathroom,floss.png,misscaled,1,zo,bathroom,b0_zo.png,0,1,zo,bathroom,b4_zo.png,c,1,2271,101388,388816,25,women
370504,OSSe2,v3,1366,625,1366,768,4-14-2023,11-1-42,3,4,small,classroom,paperclip.png,misscaled,0,zo,bathroom,b3_zo.png,1,1,zo,bathroom,b2_zo.png,m,0,1922,101388,388816,25,women
370504,OSSe2,v3,1366,625,1366,768,4-14-2023,11-1-42,3,5,small,kitchen,sponge.png,scaled,1,zi,kitchen,k5_zi.png,1,0,zi,laundromat,l0_zi.png,m,1,2039,101388,388816,25,women
370504,OSSe2,v3,1366,625,1366,768,4-14-2023,11-1-42,3,6,large,bathroom,loofah.png,scaled,1,zo,bathroom,b1_zo.png,0,0,zo,classroom,c4_zo.png,m,1,1694,101388,388816,25,women
370504,OSSe2,v3,1366,625,1366,768,4-14-2023,11-1-42,3,7,small,bathroom,lipstick.png,misscaled,0,zo,classroom,c5_zo.png,1,1,zo,classroom,c2_zo.png,c,1,2173,101388,388816,25,women
370504,OSSe2,v3,1366,625,1366,768,4-14-2023,11-1-42,3,8,large,kitchen,pot.png,scaled,1,zo,kitchen,k2_zo.png,0,1,zo,kitchen,k5_zo.png,c,1,1563,101388,388816,25,women
370504,OSSe2,v3,1366,625,1366,768,4-14-2023,11-1-42,3,9,large,laundromat,shorts.png,misscaled,0,zi,classroom,c5_zi.png,1,1,zi,classroom,c0_zi.png,c,1,1826,101388,388816,25,women
370504,OSSe2,v3,1366,625,1366,768,4-14-2023,11-1-42,3,10,large,kitchen,kettle.png,misscaled,0,zi,bathroom,b0_zi.png,0,1,zi,bathroom,b3_zi.png,c,1,1584,101388,388816,25,women
370504,OSSe2,v3,1366,625,1366,768,4-14-2023,11-1-42,3,11,small,bathroom,nailclipper.png,scaled,0,zi,classroom,c3_zi.png,0,0,zi,laundromat,l3_zi.png,c,0,1084,101388,388816,25,women
370504,OSSe2,v3,1366,625,1366,768,4-14-2023,11-1-42,3,12,large,classroom,computer.png,scaled,0,zo,bathroom,b5_zo.png,0,0,zo,laundromat,l2_zo.png,m,1,1845,101388,388816,25,women
370504,OSSe2,v3,1366,625,1366,768,4-14-2023,11-1-42,3,13,small,laundromat,tidepod.png,misscaled,1,zo,laundromat,l5_zo.png,0,0,zo,kitchen,k0_zo.png,m,1,1550,101388,388816,25,women
370504,OSSe2,v3,1366,625,1366,768,4-14-2023,11-1-42,3,14,large,laundromat,detergent.png,misscaled,1,zi,laundromat,l4_zi.png,1,0,zi,classroom,c1_zi.png,m,1,1341,101388,388816,25,women
370504,OSSe2,v3,1366,625,1366,768,4-14-2023,11-1-42,3,15,small,classroom,eraser.png,scaled,1,zi,classroom,c4_zi.png,0,1,zi,classroom,c2_zi.png,c,1,1694,101388,388816,25,women
764397,OSSe2,v3,1366,625,1366,768,4-11-2023,17-55-16,1,0,small,bathroom,lipstick.png,scaled,0,zi,laundromat,l1_zi.png,0,0,zi,kitchen,k4_zi.png,m,1,1334,107697,894404,27,Woman
764397,OSSe2,v3,1366,625,1366,768,4-11-2023,17-55-16,1,1,small,classroom,eraser.png,misscaled,0,zo,bathroom,b2_zo.png,0,0,zo,laundromat,l4_zo.png,m,1,1112,107697,894404,27,Woman
764397,OSSe2,v3,1366,625,1366,768,4-11-2023,17-55-16,1,2,small,kitchen,spoon.png,scaled,0,zi,bathroom,b1_zi.png,1,1,zi,bathroom,b4_zi.png,c,1,2072,107697,894404,27,Woman
764397,OSSe2,v3,1366,625,1366,768,4-11-2023,17-55-16,1,3,large,kitchen,kettle.png,misscaled,0,zi,bathroom,b0_zi.png,0,1,zi,bathroom,b3_zi.png,c,1,1821,107697,894404,27,Woman
764397,OSSe2,v3,1366,625,1366,768,4-11-2023,17-55-16,1,4,large,bathroom,hairdryer.png,misscaled,0,zi,classroom,c0_zi.png,0,0,zi,laundromat,l4_zi.png,m,1,4009,107697,894404,27,Woman
764397,OSSe2,v3,1366,625,1366,768,4-11-2023,17-55-16,1,5,large,bathroom,loofah.png,misscaled,1,zi,bathroom,b2_zi.png,0,1,zi,bathroom,b5_zi.png,c,1,1552,107697,894404,27,Woman
764397,OSSe2,v3,1366,625,1366,768,4-11-2023,17-55-16,1,6,large,bathroom,tissuebox.png,scaled,0,zo,laundromat,l3_zo.png,1,1,zo,laundromat,l2_zo.png,c,1,4280,107697,894404,27,Woman
764397,OSSe2,v3,1366,625,1366,768,4-11-2023,17-55-16,1,7,small,classroom,paperclip.png,misscaled,0,zo,bathroom,b4_zo.png,0,0,zo,kitchen,k1_zo.png,c,0,2620,107697,894404,27,Woman
764397,OSSe2,v3,1366,625,1366,768,4-11-2023,17-55-16,1,8,small,classroom,binderclip.png,scaled,1,zi,classroom,c3_zi.png,0,1,zi,classroom,c5_zi.png,c,1,1476,107697,894404,27,Woman
764397,OSSe2,v3,1366,625,1366,768,4-11-2023,17-55-16,1,9,large,kitchen,pot.png,scaled,1,zo,kitchen,k4_zo.png,0,0,zo,laundromat,l0_zo.png,m,1,2552,107697,894404,27,Woman
764397,OSSe2,v3,1366,625,1366,768,4-11-2023,17-55-16,1,10,large,kitchen,toaster.png,scaled,1,zo,kitchen,k3_zo.png,0,0,zo,laundromat,l1_zo.png,m,1,2818,107697,894404,27,Woman
764397,OSSe2,v3,1366,625,1366,768,4-11-2023,17-55-16,1,11,large,classroom,notebook.png,scaled,0,zo,kitchen,k0_zo.png,0,0,zo,bathroom,b3_zo.png,m,1,2986,107697,894404,27,Woman
764397,OSSe2,v3,1366,625,1366,768,4-11-2023,17-55-16,1,12,large,laundromat,shorts.png,misscaled,1,zi,laundromat,l3_zi.png,1,0,zi,classroom,c2_zi.png,m,1,2263,107697,894404,27,Woman
764397,OSSe2,v3,1366,625,1366,768,4-11-2023,17-55-16,1,13,small,bathroom,nailclipper.png,misscaled,1,zo,bathroom,b1_zo.png,1,0,zo,classroom,c0_zo.png,m,1,3984,107697,894404,27,Woman
764397,OSSe2,v3,1366,625,1366,768,4-11-2023,17-55-16,1,14,small,kitchen,sponge.png,misscaled,1,zo,kitchen,k2_zo.png,0,0,zo,laundromat,l5_zo.png,m,1,3427,107697,894404,27,Woman
764397,OSSe2,v3,1366,625,1366,768,4-11-2023,17-55-16,1,15,small,laundromat,socks.png,scaled,1,zi,laundromat,l2_zi.png,0,1,zi,laundromat,l0_zi.png,m,0,2269,107697,894404,27,Woman
704907,OSSe2,v3,1215,553,1231,693,4-14-2023,6-22-41,1,0,small,classroom,eraser.png,scaled,0,zi,laundromat,l0_zi.png,0,1,zi,laundromat,l1_zi.png,c,1,1023,77484,577870,30,Woman
704907,OSSe2,v3,1215,553,1231,693,4-14-2023,6-22-41,1,1,small,bathroom,floss.png,misscaled,1,zo,bathroom,b5_zo.png,1,0,zo,classroom,c5_zo.png,m,1,550,77484,577870,30,Woman
704907,OSSe2,v3,1215,553,1231,693,4-14-2023,6-22-41,1,2,large,laundromat,shorts.png,scaled,1,zo,laundromat,l3_zo.png,0,0,zo,bathroom,b1_zo.png,m,1,665,77484,577870,30,Woman
704907,OSSe2,v3,1215,553,1231,693,4-14-2023,6-22-41,1,3,large,classroom,powerstrip.png,misscaled,1,zi,classroom,c5_zi.png,1,0,zi,kitchen,k0_zi.png,m,1,561,77484,577870,30,Woman
704907,OSSe2,v3,1215,553,1231,693,4-14-2023,6-22-41,1,4,large,kitchen,toaster.png,misscaled,0,zi,classroom,c0_zi.png,0,0,zi,laundromat,l4_zi.png,m,1,549,77484,577870,30,Woman
704907,OSSe2,v3,1215,553,1231,693,4-14-2023,6-22-41,1,5,small,bathroom,lipstick.png,misscaled,0,zo,kitchen,k0_zo.png,1,0,zo,classroom,c0_zo.png,m,1,596,77484,577870,30,Woman
704907,OSSe2,v3,1215,553,1231,693,4-14-2023,6-22-41,1,6,large,kitchen,kettle.png,scaled,0,zo,bathroom,b0_zo.png,0,1,zo,bathroom,b2_zo.png,c,1,695,77484,577870,30,Woman
704907,OSSe2,v3,1215,553,1231,693,4-14-2023,6-22-41,1,7,small,classroom,binderclip.png,scaled,1,zi,classroom,c4_zi.png,0,0,zi,laundromat,l5_zi.png,m,1,639,77484,577870,30,Woman
704907,OSSe2,v3,1215,553,1231,693,4-14-2023,6-22-41,1,8,small,classroom,paperclip.png,scaled,1,zi,classroom,c1_zi.png,1,0,zi,kitchen,k5_zi.png,m,1,631,77484,577870,30,Woman
704907,OSSe2,v3,1215,553,1231,693,4-14-2023,6-22-41,1,9,small,kitchen,saltshaker.png,misscaled,1,zo,kitchen,k1_zo.png,0,0,zo,bathroom,b3_zo.png,m,1,621,77484,577870,30,Woman
704907,OSSe2,v3,1215,553,1231,693,4-14-2023,6-22-41,1,10,large,kitchen,pot.png,misscaled,1,zi,kitchen,k3_zi.png,1,1,zi,kitchen,k1_zi.png,c,1,676,77484,577870,30,Woman
704907,OSSe2,v3,1215,553,1231,693,4-14-2023,6-22-41,1,11,large,classroom,notebook.png,scaled,0,zo,kitchen,k4_zo.png,0,0,zo,bathroom,b4_zo.png,m,1,599,77484,577870,30,Woman
704907,OSSe2,v3,1215,553,1231,693,4-14-2023,6-22-41,1,12,large,classroom,computer.png,misscaled,0,zi,kitchen,k2_zi.png,1,1,zi,kitchen,k4_zi.png,m,0,676,77484,577870,30,Woman
704907,OSSe2,v3,1215,553,1231,693,4-14-2023,6-22-41,1,13,large,laundromat,shirt.png,scaled,1,zo,laundromat,l2_zo.png,0,0,zo,kitchen,k3_zo.png,m,1,638,77484,577870,30,Woman
704907,OSSe2,v3,1215,553,1231,693,4-14-2023,6-22-41,1,14,small,laundromat,coins.png,misscaled,0,zo,kitchen,k2_zo.png,1,1,zo,kitchen,k5_zo.png,c,1,519,77484,577870,30,Woman
704907,OSSe2,v3,1215,553,1231,693,4-14-2023,6-22-41,1,15,small,kitchen,spoon.png,scaled,0,zi,bathroom,b2_zi.png,1,0,zi,laundromat,l2_zi.png,m,1,734,77484,577870,30,Woman
757492,OSSe2,v3,1536,722,1536,864,4-11-2023,14-53-31,2,0,small,laundromat,socks.png,misscaled,0,zo,kitchen,k5_zo.png,0,1,zo,kitchen,k0_zo.png,c,1,1901,114746,463485,28,Woman
757492,OSSe2,v3,1536,722,1536,864,4-11-2023,14-53-31,2,1,small,bathroom,floss.png,scaled,0,zi,kitchen,k2_zi.png,0,1,zi,kitchen,k0_zi.png,c,1,1597,114746,463485,28,Woman
757492,OSSe2,v3,1536,722,1536,864,4-11-2023,14-53-31,2,2,large,kitchen,kettle.png,misscaled,1,zi,kitchen,k5_zi.png,1,0,zi,classroom,c1_zi.png,m,1,5021,114746,463485,28,Woman
757492,OSSe2,v3,1536,722,1536,864,4-11-2023,14-53-31,2,3,large,bathroom,hairdryer.png,misscaled,0,zi,kitchen,k3_zi.png,1,0,zi,laundromat,l5_zi.png,c,0,3332,114746,463485,28,Woman
757492,OSSe2,v3,1536,722,1536,864,4-11-2023,14-53-31,2,4,large,kitchen,pot.png,misscaled,0,zi,classroom,c0_zi.png,0,1,zi,classroom,c5_zi.png,c,1,2702,114746,463485,28,Woman
757492,OSSe2,v3,1536,722,1536,864,4-11-2023,14-53-31,2,5,small,classroom,paperclip.png,scaled,0,zi,laundromat,l4_zi.png,1,1,zi,laundromat,l0_zi.png,c,1,3179,114746,463485,28,Woman
757492,OSSe2,v3,1536,722,1536,864,4-11-2023,14-53-31,2,6,large,kitchen,toaster.png,scaled,1,zo,kitchen,k4_zo.png,0,1,zo,kitchen,k3_zo.png,m,0,10868,114746,463485,28,Woman
757492,OSSe2,v3,1536,722,1536,864,4-11-2023,14-53-31,2,7,large,bathroom,tissuebox.png,scaled,0,zo,classroom,c1_zo.png,0,0,zo,kitchen,k2_zo.png,m,1,1827,114746,463485,28,Woman
757492,OSSe2,v3,1536,722,1536,864,4-11-2023,14-53-31,2,8,large,laundromat,shirt.png,scaled,0,zo,kitchen,k1_zo.png,0,0,zo,bathroom,b3_zo.png,m,1,1901,114746,463485,28,Woman
757492,OSSe2,v3,1536,722,1536,864,4-11-2023,14-53-31,2,9,small,kitchen,spoon.png,scaled,1,zi,kitchen,k1_zi.png,1,0,zi,laundromat,l1_zi.png,m,1,1941,114746,463485,28,Woman
757492,OSSe2,v3,1536,722,1536,864,4-11-2023,14-53-31,2,10,small,laundromat,tidepod.png,scaled,1,zi,laundromat,l2_zi.png,0,0,zi,classroom,c4_zi.png,m,1,1380,114746,463485,28,Woman
757492,OSSe2,v3,1536,722,1536,864,4-11-2023,14-53-31,2,11,small,classroom,binderclip.png,misscaled,1,zo,classroom,c5_zo.png,0,0,zo,laundromat,l3_zo.png,m,1,1206,114746,463485,28,Woman
757492,OSSe2,v3,1536,722,1536,864,4-11-2023,14-53-31,2,12,small,classroom,eraser.png,misscaled,0,zo,laundromat,l4_zo.png,1,0,zo,bathroom,b1_zo.png,m,1,1714,114746,463485,28,Woman
757492,OSSe2,v3,1536,722,1536,864,4-11-2023,14-53-31,2,13,large,bathroom,loofah.png,scaled,1,zo,bathroom,b2_zo.png,0,1,zo,bathroom,b4_zo.png,c,1,1602,114746,463485,28,Woman
757492,OSSe2,v3,1536,722,1536,864,4-11-2023,14-53-31,2,14,small,bathroom,lipstick.png,misscaled,1,zo,bathroom,b5_zo.png,0,1,zo,bathroom,b0_zo.png,c,1,1566,114746,463485,28,Woman
757492,OSSe2,v3,1536,722,1536,864,4-11-2023,14-53-31,2,15,large,laundromat,detergent.png,misscaled,1,zi,laundromat,l3_zi.png,1,0,zi,kitchen,k4_zi.png,m,1,1925,114746,463485,28,Woman
496469,OSSe2,v3,1278,927,2560,1080,4-17-2023,12-12-34,1,0,small,kitchen,sponge.png,misscaled,0,zo,bathroom,b5_zo.png,0,0,zo,laundromat,l5_zo.png,m,1,1246,79169,134637,39,Man
496469,OSSe2,v3,1278,927,2560,1080,4-17-2023,12-12-34,1,1,large,laundromat,detergent.png,scaled,1,zo,laundromat,l0_zo.png,1,1,zo,laundromat,l1_zo.png,c,1,610,79169,134637,39,Man
496469,OSSe2,v3,1278,927,2560,1080,4-17-2023,12-12-34,1,2,small,kitchen,saltshaker.png,scaled,1,zi,kitchen,k0_zi.png,1,1,zi,kitchen,k4_zi.png,c,1,582,79169,134637,39,Man
496469,OSSe2,v3,1278,927,2560,1080,4-17-2023,12-12-34,1,3,large,bathroom,loofah.png,scaled,0,zo,classroom,c2_zo.png,1,0,zo,laundromat,l2_zo.png,m,1,771,79169,134637,39,Man
496469,OSSe2,v3,1278,927,2560,1080,4-17-2023,12-12-34,1,4,large,classroom,notebook.png,misscaled,0,zi,bathroom,b5_zi.png,1,1,zi,bathroom,b2_zi.png,c,1,707,79169,134637,39,Man
496469,OSSe2,v3,1278,927,2560,1080,4-17-2023,12-12-34,1,5,large,laundromat,shorts.png,scaled,0,zo,bathroom,b4_zo.png,1,0,zo,kitchen,k5_zo.png,m,1,942,79169,134637,39,Man
496469,OSSe2,v3,1278,927,2560,1080,4-17-2023,12-12-34,1,6,large,kitchen,pot.png,misscaled,0,zi,bathroom,b1_zi.png,0,1,zi,bathroom,b0_zi.png,c,1,1084,79169,134637,39,Man
496469,OSSe2,v3,1278,927,2560,1080,4-17-2023,12-12-34,1,7,small,classroom,binderclip.png,misscaled,0,zo,bathroom,b0_zo.png,1,0,zo,laundromat,l4_zo.png,m,1,823,79169,134637,39,Man
496469,OSSe2,v3,1278,927,2560,1080,4-17-2023,12-12-34,1,8,small,kitchen,spoon.png,scaled,0,zi,laundromat,l4_zi.png,1,0,zi,classroom,c4_zi.png,m,1,946,79169,134637,39,Man
496469,OSSe2,v3,1278,927,2560,1080,4-17-2023,12-12-34,1,9,small,bathroom,floss.png,scaled,0,zi,classroom,c1_zi.png,0,1,zi,classroom,c5_zi.png,c,1,721,79169,134637,39,Man
496469,OSSe2,v3,1278,927,2560,1080,4-17-2023,12-12-34,1,10,large,bathroom,tissuebox.png,misscaled,1,zi,bathroom,b3_zi.png,0,0,zi,laundromat,l5_zi.png,c,0,722,79169,134637,39,Man
496469,OSSe2,v3,1278,927,2560,1080,4-17-2023,12-12-34,1,11,small,bathroom,lipstick.png,scaled,1,zi,bathroom,b4_zi.png,1,0,zi,laundromat,l1_zi.png,m,1,747,79169,134637,39,Man
496469,OSSe2,v3,1278,927,2560,1080,4-17-2023,12-12-34,1,12,small,bathroom,nailclipper.png,misscaled,1,zo,bathroom,b1_zo.png,0,0,zo,classroom,c4_zo.png,m,1,639,79169,134637,39,Man
496469,OSSe2,v3,1278,927,2560,1080,4-17-2023,12-12-34,1,13,large,laundromat,shirt.png,misscaled,1,zi,laundromat,l2_zi.png,0,1,zi,laundromat,l3_zi.png,c,1,559,79169,134637,39,Man
496469,OSSe2,v3,1278,927,2560,1080,4-17-2023,12-12-34,1,14,small,classroom,eraser.png,misscaled,1,zo,classroom,c1_zo.png,1,1,zo,classroom,c0_zo.png,c,1,590,79169,134637,39,Man
496469,OSSe2,v3,1278,927,2560,1080,4-17-2023,12-12-34,1,15,large,kitchen,kettle.png,scaled,1,zo,kitchen,k0_zo.png,1,0,zo,laundromat,l3_zo.png,c,0,346,79169,134637,39,Man
170433,OSSe2,v3,1366,625,1366,768,4-17-2023,11-23-56,2,0,small,bathroom,floss.png,scaled,0,zi,classroom,c4_zi.png,0,0,zi,laundromat,l1_zi.png,m,1,2462,147612,321923,47,Woman
170433,OSSe2,v3,1366,625,1366,768,4-17-2023,11-23-56,2,1,large,laundromat,shirt.png,scaled,1,zo,laundromat,l5_zo.png,1,0,zo,bathroom,b0_zo.png,c,0,2454,147612,321923,47,Woman
170433,OSSe2,v3,1366,625,1366,768,4-17-2023,11-23-56,2,2,small,kitchen,sponge.png,misscaled,1,zo,kitchen,k3_zo.png,1,1,zo,kitchen,k2_zo.png,m,0,2391,147612,321923,47,Woman
170433,OSSe2,v3,1366,625,1366,768,4-17-2023,11-23-56,2,3,large,bathroom,loofah.png,misscaled,0,zi,kitchen,k3_zi.png,1,0,zi,classroom,c1_zi.png,none,0,30490,147612,321923,47,Woman
170433,OSSe2,v3,1366,625,1366,768,4-17-2023,11-23-56,2,4,large,laundromat,shorts.png,misscaled,0,zi,classroom,c3_zi.png,1,1,zi,classroom,c2_zi.png,c,1,2317,147612,321923,47,Woman
170433,OSSe2,v3,1366,625,1366,768,4-17-2023,11-23-56,2,5,small,bathroom,lipstick.png,scaled,1,zi,bathroom,b5_zi.png,0,1,zi,bathroom,b1_zi.png,c,1,2160,147612,321923,47,Woman
170433,OSSe2,v3,1366,625,1366,768,4-17-2023,11-23-56,2,6,small,classroom,eraser.png,scaled,0,zi,laundromat,l2_zi.png,0,1,zi,laundromat,l3_zi.png,c,1,1185,147612,321923,47,Woman
170433,OSSe2,v3,1366,625,1366,768,4-17-2023,11-23-56,2,7,small,laundromat,coins.png,misscaled,0,zo,bathroom,b5_zo.png,1,1,zo,bathroom,b2_zo.png,c,1,2831,147612,321923,47,Woman
170433,OSSe2,v3,1366,625,1366,768,4-17-2023,11-23-56,2,8,large,kitchen,kettle.png,misscaled,1,zi,kitchen,k0_zi.png,1,0,zi,classroom,c0_zi.png,m,1,2945,147612,321923,47,Woman
170433,OSSe2,v3,1366,625,1366,768,4-17-2023,11-23-56,2,9,small,bathroom,nailclipper.png,scaled,1,zi,bathroom,b3_zi.png,1,1,zi,bathroom,b0_zi.png,c,1,1914,147612,321923,47,Woman
170433,OSSe2,v3,1366,625,1366,768,4-17-2023,11-23-56,2,10,large,bathroom,tissuebox.png,scaled,0,zo,classroom,c4_zo.png,0,1,zo,classroom,c2_zo.png,c,1,2203,147612,321923,47,Woman
170433,OSSe2,v3,1366,625,1366,768,4-17-2023,11-23-56,2,11,large,classroom,notebook.png,scaled,1,zo,classroom,c1_zo.png,1,0,zo,laundromat,l1_zo.png,m,1,2575,147612,321923,47,Woman
170433,OSSe2,v3,1366,625,1366,768,4-17-2023,11-23-56,2,12,large,kitchen,pot.png,misscaled,1,zi,kitchen,k4_zi.png,0,0,zi,laundromat,l5_zi.png,m,1,2929,147612,321923,47,Woman
170433,OSSe2,v3,1366,625,1366,768,4-17-2023,11-23-56,2,13,small,kitchen,saltshaker.png,misscaled,0,zo,laundromat,l4_zo.png,1,1,zo,laundromat,l3_zo.png,c,1,5211,147612,321923,47,Woman
170433,OSSe2,v3,1366,625,1366,768,4-17-2023,11-23-56,2,14,large,kitchen,toaster.png,scaled,0,zo,bathroom,b4_zo.png,0,0,zo,classroom,c3_zo.png,m,1,3062,147612,321923,47,Woman
170433,OSSe2,v3,1366,625,1366,768,4-17-2023,11-23-56,2,15,small,kitchen,spoon.png,misscaled,1,zo,kitchen,k4_zo.png,1,1,zo,kitchen,k0_zo.png,c,1,6812,147612,321923,47,Woman
839410,OSSe2,v3,1331,594,1366,768,4-14-2023,11-36-7,2,0,large,bathroom,tissuebox.png,scaled,1,zo,bathroom,b5_zo.png,1,0,zo,laundromat,l3_zo.png,m,1,1550,93434,289913,29,Man
839410,OSSe2,v3,1331,594,1366,768,4-14-2023,11-36-7,2,1,large,kitchen,pot.png,misscaled,1,zi,kitchen,k2_zi.png,0,1,zi,kitchen,k0_zi.png,c,1,1014,93434,289913,29,Man
839410,OSSe2,v3,1331,594,1366,768,4-14-2023,11-36-7,2,2,small,kitchen,spoon.png,scaled,0,zi,laundromat,l3_zi.png,0,1,zi,laundromat,l2_zi.png,m,0,825,93434,289913,29,Man
839410,OSSe2,v3,1331,594,1366,768,4-14-2023,11-36-7,2,3,large,kitchen,kettle.png,scaled,1,zo,kitchen,k0_zo.png,1,0,zo,laundromat,l2_zo.png,m,1,1433,93434,289913,29,Man
839410,OSSe2,v3,1331,594,1366,768,4-14-2023,11-36-7,2,4,large,kitchen,toaster.png,misscaled,1,zi,kitchen,k5_zi.png,0,1,zi,kitchen,k3_zi.png,c,1,1036,93434,289913,29,Man
839410,OSSe2,v3,1331,594,1366,768,4-14-2023,11-36-7,2,5,small,bathroom,nailclipper.png,misscaled,1,zo,bathroom,b3_zo.png,0,0,zo,laundromat,l1_zo.png,c,0,1095,93434,289913,29,Man
839410,OSSe2,v3,1331,594,1366,768,4-14-2023,11-36-7,2,6,large,bathroom,loofah.png,scaled,0,zo,classroom,c4_zo.png,1,0,zo,kitchen,k5_zo.png,m,1,1335,93434,289913,29,Man
839410,OSSe2,v3,1331,594,1366,768,4-14-2023,11-36-7,2,7,large,laundromat,detergent.png,misscaled,0,zi,classroom,c1_zi.png,1,1,zi,classroom,c2_zi.png,c,1,1380,93434,289913,29,Man
839410,OSSe2,v3,1331,594,1366,768,4-14-2023,11-36-7,2,8,small,bathroom,lipstick.png,scaled,1,zi,bathroom,b1_zi.png,1,0,zi,laundromat,l4_zi.png,m,1,1529,93434,289913,29,Man
839410,OSSe2,v3,1331,594,1366,768,4-14-2023,11-36-7,2,9,small,laundromat,tidepod.png,misscaled,0,zo,kitchen,k3_zo.png,0,1,zo,kitchen,k4_zo.png,c,1,1703,93434,289913,29,Man
839410,OSSe2,v3,1331,594,1366,768,4-14-2023,11-36-7,2,10,small,classroom,eraser.png,misscaled,0,zo,laundromat,l0_zo.png,1,0,zo,bathroom,b1_zo.png,m,1,1418,93434,289913,29,Man
839410,OSSe2,v3,1331,594,1366,768,4-14-2023,11-36-7,2,11,small,laundromat,socks.png,scaled,1,zi,laundromat,l5_zi.png,1,1,zi,laundromat,l1_zi.png,m,0,1030,93434,289913,29,Man
839410,OSSe2,v3,1331,594,1366,768,4-14-2023,11-36-7,2,12,small,classroom,binderclip.png,misscaled,1,zo,classroom,c2_zo.png,1,1,zo,classroom,c0_zo.png,c,1,936,93434,289913,29,Man
839410,OSSe2,v3,1331,594,1366,768,4-14-2023,11-36-7,2,13,small,kitchen,saltshaker.png,scaled,0,zi,classroom,c0_zi.png,0,0,zi,laundromat,l0_zi.png,m,1,1037,93434,289913,29,Man
839410,OSSe2,v3,1331,594,1366,768,4-14-2023,11-36-7,2,14,large,classroom,computer.png,scaled,0,zo,kitchen,k1_zo.png,1,0,zo,laundromat,l4_zo.png,m,1,1259,93434,289913,29,Man
839410,OSSe2,v3,1331,594,1366,768,4-14-2023,11-36-7,2,15,large,laundromat,shorts.png,misscaled,0,zi,bathroom,b3_zi.png,1,0,zi,kitchen,k4_zi.png,c,0,1785,93434,289913,29,Man
103239,OSSe2,v3,1156,711,1493,840,4-17-2023,9-10-31,1,0,small,bathroom,floss.png,misscaled,0,zo,laundromat,l0_zo.png,1,0,zo,classroom,c1_zo.png,m,1,649,86204,156241,29,Non-binary
103239,OSSe2,v3,1156,711,1493,840,4-17-2023,9-10-31,1,1,large,classroom,notebook.png,scaled,1,zo,classroom,c3_zo.png,0,1,zo,classroom,c2_zo.png,c,1,746,86204,156241,29,Non-binary
103239,OSSe2,v3,1156,711,1493,840,4-17-2023,9-10-31,1,2,small,kitchen,spoon.png,scaled,1,zi,kitchen,k0_zi.png,0,0,zi,classroom,c5_zi.png,m,1,651,86204,156241,29,Non-binary
103239,OSSe2,v3,1156,711,1493,840,4-17-2023,9-10-31,1,3,small,bathroom,lipstick.png,misscaled,0,zo,classroom,c4_zo.png,1,1,zo,classroom,c5_zo.png,c,1,504,86204,156241,29,Non-binary
103239,OSSe2,v3,1156,711,1493,840,4-17-2023,9-10-31,1,4,large,classroom,computer.png,scaled,1,zo,classroom,c0_zo.png,0,0,zo,laundromat,l3_zo.png,m,1,502,86204,156241,29,Non-binary
103239,OSSe2,v3,1156,711,1493,840,4-17-2023,9-10-31,1,5,small,laundromat,coins.png,scaled,1,zi,laundromat,l2_zi.png,0,0,zi,bathroom,b0_zi.png,m,1,554,86204,156241,29,Non-binary
103239,OSSe2,v3,1156,711,1493,840,4-17-2023,9-10-31,1,6,small,laundromat,tidepod.png,scaled,0,zi,kitchen,k4_zi.png,1,0,zi,bathroom,b5_zi.png,m,1,731,86204,156241,29,Non-binary
103239,OSSe2,v3,1156,711,1493,840,4-17-2023,9-10-31,1,7,large,classroom,powerstrip.png,misscaled,1,zi,classroom,c4_zi.png,0,0,zi,bathroom,b4_zi.png,m,1,629,86204,156241,29,Non-binary
103239,OSSe2,v3,1156,711,1493,840,4-17-2023,9-10-31,1,8,small,bathroom,nailclipper.png,misscaled,1,zo,bathroom,b2_zo.png,0,0,zo,kitchen,k1_zo.png,c,0,507,86204,156241,29,Non-binary
103239,OSSe2,v3,1156,711,1493,840,4-17-2023,9-10-31,1,9,small,kitchen,saltshaker.png,misscaled,1,zo,kitchen,k3_zo.png,1,1,zo,kitchen,k2_zo.png,c,1,631,86204,156241,29,Non-binary
103239,OSSe2,v3,1156,711,1493,840,4-17-2023,9-10-31,1,10,small,classroom,binderclip.png,scaled,0,zi,bathroom,b3_zi.png,0,0,zi,laundromat,l1_zi.png,m,1,794,86204,156241,29,Non-binary
103239,OSSe2,v3,1156,711,1493,840,4-17-2023,9-10-31,1,11,large,kitchen,pot.png,scaled,0,zo,bathroom,b0_zo.png,1,0,zo,laundromat,l2_zo.png,m,1,624,86204,156241,29,Non-binary
103239,OSSe2,v3,1156,711,1493,840,4-17-2023,9-10-31,1,12,large,laundromat,shorts.png,scaled,0,zo,kitchen,k5_zo.png,1,0,zo,bathroom,b5_zo.png,c,0,516,86204,156241,29,Non-binary
103239,OSSe2,v3,1156,711,1493,840,4-17-2023,9-10-31,1,13,large,kitchen,kettle.png,misscaled,0,zi,classroom,c1_zi.png,1,0,zi,bathroom,b2_zi.png,m,1,590,86204,156241,29,Non-binary
103239,OSSe2,v3,1156,711,1493,840,4-17-2023,9-10-31,1,14,large,kitchen,toaster.png,misscaled,0,zi,classroom,c0_zi.png,1,1,zi,classroom,c2_zi.png,m,0,3378,86204,156241,29,Non-binary
103239,OSSe2,v3,1156,711,1493,840,4-17-2023,9-10-31,1,15,large,laundromat,shirt.png,misscaled,1,zi,laundromat,l0_zi.png,1,1,zi,laundromat,l5_zi.png,c,1,664,86204,156241,29,Non-binary
710358,OSSe2,v3,1366,625,1366,768,4-14-2023,10-48-18,1,0,small,bathroom,floss.png,misscaled,0,zo,classroom,c5_zo.png,0,1,zo,classroom,c0_zo.png,c,1,2957,107218,320543,36,Woman
710358,OSSe2,v3,1366,625,1366,768,4-14-2023,10-48-18,1,1,large,bathroom,loofah.png,misscaled,1,zi,bathroom,b2_zi.png,1,0,zi,classroom,c0_zi.png,c,0,2382,107218,320543,36,Woman
710358,OSSe2,v3,1366,625,1366,768,4-14-2023,10-48-18,1,2,large,laundromat,shirt.png,scaled,0,zo,kitchen,k0_zo.png,0,1,zo,kitchen,k5_zo.png,c,1,1870,107218,320543,36,Woman
710358,OSSe2,v3,1366,625,1366,768,4-14-2023,10-48-18,1,3,large,bathroom,tissuebox.png,scaled,1,zo,bathroom,b1_zo.png,1,0,zo,kitchen,k4_zo.png,c,0,2908,107218,320543,36,Woman
710358,OSSe2,v3,1366,625,1366,768,4-14-2023,10-48-18,1,4,small,classroom,eraser.png,scaled,1,zi,classroom,c3_zi.png,1,1,zi,classroom,c1_zi.png,c,1,1710,107218,320543,36,Woman
710358,OSSe2,v3,1366,625,1366,768,4-14-2023,10-48-18,1,5,small,classroom,binderclip.png,scaled,1,zi,classroom,c5_zi.png,1,1,zi,classroom,c4_zi.png,c,1,1645,107218,320543,36,Woman
710358,OSSe2,v3,1366,625,1366,768,4-14-2023,10-48-18,1,6,large,bathroom,hairdryer.png,scaled,1,zo,bathroom,b2_zo.png,0,1,zo,bathroom,b3_zo.png,c,1,2879,107218,320543,36,Woman
710358,OSSe2,v3,1366,625,1366,768,4-14-2023,10-48-18,1,7,large,kitchen,pot.png,misscaled,0,zi,laundromat,l0_zi.png,1,0,zi,bathroom,b1_zi.png,c,0,2457,107218,320543,36,Woman
710358,OSSe2,v3,1366,625,1366,768,4-14-2023,10-48-18,1,8,small,kitchen,sponge.png,scaled,0,zi,bathroom,b4_zi.png,0,1,zi,bathroom,b0_zi.png,c,1,1766,107218,320543,36,Woman
710358,OSSe2,v3,1366,625,1366,768,4-14-2023,10-48-18,1,9,large,classroom,notebook.png,misscaled,1,zi,classroom,c2_zi.png,1,0,zi,laundromat,l1_zi.png,m,1,2127,107218,320543,36,Woman
710358,OSSe2,v3,1366,625,1366,768,4-14-2023,10-48-18,1,10,large,laundromat,shorts.png,misscaled,0,zi,bathroom,b5_zi.png,0,1,zi,bathroom,b3_zi.png,c,1,1335,107218,320543,36,Woman
710358,OSSe2,v3,1366,625,1366,768,4-14-2023,10-48-18,1,11,small,classroom,paperclip.png,scaled,0,zi,laundromat,l4_zi.png,1,1,zi,laundromat,l3_zi.png,c,1,1444,107218,320543,36,Woman
710358,OSSe2,v3,1366,625,1366,768,4-14-2023,10-48-18,1,12,small,kitchen,spoon.png,misscaled,1,zo,kitchen,k1_zo.png,0,1,zo,kitchen,k3_zo.png,c,1,1428,107218,320543,36,Woman
710358,OSSe2,v3,1366,625,1366,768,4-14-2023,10-48-18,1,13,large,classroom,powerstrip.png,scaled,0,zo,laundromat,l2_zo.png,1,1,zo,laundromat,l5_zo.png,c,1,1458,107218,320543,36,Woman
710358,OSSe2,v3,1366,625,1366,768,4-14-2023,10-48-18,1,14,small,bathroom,nailclipper.png,misscaled,1,zo,bathroom,b4_zo.png,0,0,zo,kitchen,k2_zo.png,c,0,1304,107218,320543,36,Woman
710358,OSSe2,v3,1366,625,1366,768,4-14-2023,10-48-18,1,15,small,laundromat,coins.png,misscaled,0,zo,bathroom,b5_zo.png,0,1,zo,bathroom,b0_zo.png,c,1,1513,107218,320543,36,Woman
241583,OSSe2,v3,1236,920,1680,1050,4-17-2023,11-17-17,1,0,large,laundromat,shorts.png,scaled,0,zo,kitchen,k0_zo.png,1,0,zo,bathroom,b0_zo.png,c,0,1052,81824,204197,32,Woman
241583,OSSe2,v3,1236,920,1680,1050,4-17-2023,11-17-17,1,1,small,classroom,eraser.png,misscaled,1,zo,classroom,c2_zo.png,0,1,zo,classroom,c3_zo.png,c,1,783,81824,204197,32,Woman
241583,OSSe2,v3,1236,920,1680,1050,4-17-2023,11-17-17,1,2,large,laundromat,detergent.png,misscaled,1,zi,laundromat,l4_zi.png,1,0,zi,classroom,c2_zi.png,m,1,1069,81824,204197,32,Woman
241583,OSSe2,v3,1236,920,1680,1050,4-17-2023,11-17-17,1,3,small,classroom,binderclip.png,scaled,0,zi,laundromat,l0_zi.png,0,1,zi,laundromat,l1_zi.png,c,1,1064,81824,204197,32,Woman
241583,OSSe2,v3,1236,920,1680,1050,4-17-2023,11-17-17,1,4,large,bathroom,loofah.png,misscaled,1,zi,bathroom,b3_zi.png,0,1,zi,bathroom,b1_zi.png,c,1,1739,81824,204197,32,Woman
241583,OSSe2,v3,1236,920,1680,1050,4-17-2023,11-17-17,1,5,small,laundromat,tidepod.png,scaled,0,zi,classroom,c5_zi.png,0,1,zi,classroom,c1_zi.png,c,1,699,81824,204197,32,Woman
241583,OSSe2,v3,1236,920,1680,1050,4-17-2023,11-17-17,1,6,small,laundromat,socks.png,scaled,1,zi,laundromat,l3_zi.png,1,0,zi,classroom,c3_zi.png,m,1,697,81824,204197,32,Woman
241583,OSSe2,v3,1236,920,1680,1050,4-17-2023,11-17-17,1,7,small,bathroom,floss.png,scaled,1,zi,bathroom,b4_zi.png,0,1,zi,bathroom,b0_zi.png,c,1,805,81824,204197,32,Woman
241583,OSSe2,v3,1236,920,1680,1050,4-17-2023,11-17-17,1,8,large,laundromat,shirt.png,misscaled,0,zi,bathroom,b5_zi.png,1,0,zi,classroom,c4_zi.png,m,1,824,81824,204197,32,Woman
241583,OSSe2,v3,1236,920,1680,1050,4-17-2023,11-17-17,1,9,large,kitchen,pot.png,scaled,1,zo,kitchen,k4_zo.png,0,1,zo,kitchen,k2_zo.png,c,1,780,81824,204197,32,Woman
241583,OSSe2,v3,1236,920,1680,1050,4-17-2023,11-17-17,1,10,large,bathroom,tissuebox.png,scaled,0,zo,laundromat,l1_zo.png,1,1,zo,laundromat,l5_zo.png,c,1,890,81824,204197,32,Woman
241583,OSSe2,v3,1236,920,1680,1050,4-17-2023,11-17-17,1,11,large,classroom,computer.png,misscaled,0,zi,bathroom,b2_zi.png,1,0,zi,laundromat,l2_zi.png,m,1,733,81824,204197,32,Woman
241583,OSSe2,v3,1236,920,1680,1050,4-17-2023,11-17-17,1,12,small,kitchen,spoon.png,misscaled,0,zo,laundromat,l3_zo.png,1,1,zo,laundromat,l2_zo.png,c,1,1003,81824,204197,32,Woman
241583,OSSe2,v3,1236,920,1680,1050,4-17-2023,11-17-17,1,13,small,laundromat,coins.png,misscaled,0,zo,classroom,c1_zo.png,0,1,zo,classroom,c4_zo.png,c,1,772,81824,204197,32,Woman
241583,OSSe2,v3,1236,920,1680,1050,4-17-2023,11-17-17,1,14,large,kitchen,kettle.png,scaled,1,zo,kitchen,k1_zo.png,0,1,zo,kitchen,k5_zo.png,c,1,981,81824,204197,32,Woman
241583,OSSe2,v3,1236,920,1680,1050,4-17-2023,11-17-17,1,15,small,classroom,paperclip.png,misscaled,1,zo,classroom,c5_zo.png,1,1,zo,classroom,c0_zo.png,c,1,797,81824,204197,32,Woman
427317,OSSe2,v3,1366,657,1366,768,4-11-2023,13-29-40,1,0,small,classroom,eraser.png,misscaled,1,zo,classroom,c0_zo.png,0,1,zo,classroom,c4_zo.png,c,1,1948,97246,290902,26,Woman
427317,OSSe2,v3,1366,657,1366,768,4-11-2023,13-29-40,1,1,small,classroom,paperclip.png,misscaled,0,zo,kitchen,k5_zo.png,1,1,zo,kitchen,k3_zo.png,c,1,2115,97246,290902,26,Woman
427317,OSSe2,v3,1366,657,1366,768,4-11-2023,13-29-40,1,2,large,classroom,notebook.png,misscaled,0,zi,bathroom,b5_zi.png,1,1,zi,bathroom,b1_zi.png,c,1,1670,97246,290902,26,Woman
427317,OSSe2,v3,1366,657,1366,768,4-11-2023,13-29-40,1,3,large,bathroom,hairdryer.png,scaled,0,zo,laundromat,l3_zo.png,0,0,zo,kitchen,k0_zo.png,c,0,1426,97246,290902,26,Woman
427317,OSSe2,v3,1366,657,1366,768,4-11-2023,13-29-40,1,4,large,laundromat,detergent.png,scaled,1,zo,laundromat,l5_zo.png,0,1,zo,laundromat,l4_zo.png,c,1,1594,97246,290902,26,Woman
427317,OSSe2,v3,1366,657,1366,768,4-11-2023,13-29-40,1,5,small,laundromat,coins.png,scaled,1,zi,laundromat,l3_zi.png,1,1,zi,laundromat,l2_zi.png,c,1,1212,97246,290902,26,Woman
427317,OSSe2,v3,1366,657,1366,768,4-11-2023,13-29-40,1,6,large,laundromat,shorts.png,misscaled,0,zi,bathroom,b4_zi.png,1,0,zi,kitchen,k4_zi.png,c,0,1744,97246,290902,26,Woman
427317,OSSe2,v3,1366,657,1366,768,4-11-2023,13-29-40,1,7,large,kitchen,kettle.png,misscaled,1,zi,kitchen,k2_zi.png,1,1,zi,kitchen,k5_zi.png,c,1,1685,97246,290902,26,Woman
427317,OSSe2,v3,1366,657,1366,768,4-11-2023,13-29-40,1,8,large,bathroom,tissuebox.png,scaled,1,zo,bathroom,b0_zo.png,0,0,zo,kitchen,k1_zo.png,m,1,1669,97246,290902,26,Woman
427317,OSSe2,v3,1366,657,1366,768,4-11-2023,13-29-40,1,9,small,laundromat,tidepod.png,misscaled,0,zo,bathroom,b4_zo.png,0,1,zo,bathroom,b5_zo.png,c,1,1233,97246,290902,26,Woman
427317,OSSe2,v3,1366,657,1366,768,4-11-2023,13-29-40,1,10,large,kitchen,pot.png,scaled,0,zo,laundromat,l0_zo.png,1,1,zo,laundromat,l2_zo.png,c,1,871,97246,290902,26,Woman
427317,OSSe2,v3,1366,657,1366,768,4-11-2023,13-29-40,1,11,small,kitchen,saltshaker.png,scaled,1,zi,kitchen,k0_zi.png,0,1,zi,kitchen,k3_zi.png,c,1,1355,97246,290902,26,Woman
427317,OSSe2,v3,1366,657,1366,768,4-11-2023,13-29-40,1,12,small,laundromat,socks.png,scaled,0,zi,bathroom,b3_zi.png,1,0,zi,kitchen,k1_zi.png,c,0,1292,97246,290902,26,Woman
427317,OSSe2,v3,1366,657,1366,768,4-11-2023,13-29-40,1,13,small,kitchen,sponge.png,misscaled,1,zo,kitchen,k2_zo.png,0,0,zo,classroom,c5_zo.png,m,1,1216,97246,290902,26,Woman
427317,OSSe2,v3,1366,657,1366,768,4-11-2023,13-29-40,1,14,large,classroom,computer.png,misscaled,1,zi,classroom,c5_zi.png,1,0,zi,laundromat,l1_zi.png,m,1,1712,97246,290902,26,Woman
427317,OSSe2,v3,1366,657,1366,768,4-11-2023,13-29-40,1,15,small,kitchen,spoon.png,scaled,0,zi,bathroom,b2_zi.png,1,0,zi,classroom,c3_zi.png,m,1,1437,97246,290902,26,Woman
222622,OSSe2,v3,1366,625,1366,768,4-14-2023,11-20-55,1,0,small,laundromat,socks.png,misscaled,0,zo,bathroom,b3_zo.png,1,0,zo,kitchen,k0_zo.png,m,1,3187,94023,310186,25,Man
222622,OSSe2,v3,1366,625,1366,768,4-14-2023,11-20-55,1,1,large,classroom,computer.png,scaled,0,zo,laundromat,l0_zo.png,1,0,zo,kitchen,k4_zo.png,m,1,1725,94023,310186,25,Man
222622,OSSe2,v3,1366,625,1366,768,4-14-2023,11-20-55,1,2,small,kitchen,sponge.png,misscaled,1,zo,kitchen,k3_zo.png,0,0,zo,laundromat,l4_zo.png,m,1,1548,94023,310186,25,Man
222622,OSSe2,v3,1366,625,1366,768,4-14-2023,11-20-55,1,3,small,classroom,paperclip.png,scaled,0,zi,kitchen,k1_zi.png,1,0,zi,laundromat,l1_zi.png,c,0,1615,94023,310186,25,Man
222622,OSSe2,v3,1366,625,1366,768,4-14-2023,11-20-55,1,4,small,classroom,eraser.png,scaled,1,zi,classroom,c3_zi.png,0,1,zi,classroom,c0_zi.png,c,1,1847,94023,310186,25,Man
222622,OSSe2,v3,1366,625,1366,768,4-14-2023,11-20-55,1,5,large,laundromat,shorts.png,scaled,1,zo,laundromat,l3_zo.png,1,0,zo,kitchen,k5_zo.png,m,1,2202,94023,310186,25,Man
222622,OSSe2,v3,1366,625,1366,768,4-14-2023,11-20-55,1,6,small,laundromat,coins.png,misscaled,1,zo,laundromat,l1_zo.png,1,0,zo,classroom,c4_zo.png,m,1,1379,94023,310186,25,Man
222622,OSSe2,v3,1366,625,1366,768,4-14-2023,11-20-55,1,7,small,classroom,binderclip.png,scaled,1,zi,classroom,c4_zi.png,0,0,zi,bathroom,b1_zi.png,m,1,1405,94023,310186,25,Man
222622,OSSe2,v3,1366,625,1366,768,4-14-2023,11-20-55,1,8,large,laundromat,detergent.png,scaled,0,zo,bathroom,b1_zo.png,0,1,zo,bathroom,b4_zo.png,c,1,1249,94023,310186,25,Man
222622,OSSe2,v3,1366,625,1366,768,4-14-2023,11-20-55,1,9,small,bathroom,nailclipper.png,misscaled,0,zo,classroom,c5_zo.png,0,0,zo,kitchen,k1_zo.png,m,1,1386,94023,310186,25,Man
222622,OSSe2,v3,1366,625,1366,768,4-14-2023,11-20-55,1,10,large,bathroom,tissuebox.png,misscaled,0,zi,classroom,c1_zi.png,1,0,zi,laundromat,l5_zi.png,m,1,1944,94023,310186,25,Man
222622,OSSe2,v3,1366,625,1366,768,4-14-2023,11-20-55,1,11,small,kitchen,spoon.png,scaled,0,zi,bathroom,b2_zi.png,1,0,zi,laundromat,l0_zi.png,m,1,1389,94023,310186,25,Man
222622,OSSe2,v3,1366,625,1366,768,4-14-2023,11-20-55,1,12,large,bathroom,hairdryer.png,misscaled,1,zi,bathroom,b0_zi.png,0,0,zi,kitchen,k2_zi.png,m,1,1491,94023,310186,25,Man
222622,OSSe2,v3,1366,625,1366,768,4-14-2023,11-20-55,1,13,large,laundromat,shirt.png,scaled,1,zo,laundromat,l5_zo.png,1,0,zo,kitchen,k2_zo.png,m,1,1274,94023,310186,25,Man
222622,OSSe2,v3,1366,625,1366,768,4-14-2023,11-20-55,1,14,large,bathroom,loofah.png,misscaled,1,zi,bathroom,b3_zi.png,0,1,zi,bathroom,b4_zi.png,c,1,1767,94023,310186,25,Man
222622,OSSe2,v3,1366,625,1366,768,4-14-2023,11-20-55,1,15,large,classroom,powerstrip.png,misscaled,0,zi,bathroom,b5_zi.png,1,0,zi,kitchen,k0_zi.png,m,1,1570,94023,310186,25,Man
644829,OSSe2,v3,1192,624,1280,800,4-14-2023,9-18-4,2,0,large,laundromat,shirt.png,misscaled,1,zi,laundromat,l5_zi.png,1,0,zi,classroom,c2_zi.png,c,0,1079,92975,248477,50,Woman
644829,OSSe2,v3,1192,624,1280,800,4-14-2023,9-18-4,2,1,small,laundromat,tidepod.png,scaled,1,zi,laundromat,l3_zi.png,0,1,zi,laundromat,l4_zi.png,c,1,1013,92975,248477,50,Woman
644829,OSSe2,v3,1192,624,1280,800,4-14-2023,9-18-4,2,2,small,classroom,paperclip.png,misscaled,0,zo,kitchen,k5_zo.png,0,0,zo,bathroom,b2_zo.png,m,1,1100,92975,248477,50,Woman
644829,OSSe2,v3,1192,624,1280,800,4-14-2023,9-18-4,2,3,small,classroom,binderclip.png,misscaled,1,zo,classroom,c0_zo.png,0,0,zo,kitchen,k0_zo.png,m,1,1087,92975,248477,50,Woman
644829,OSSe2,v3,1192,624,1280,800,4-14-2023,9-18-4,2,4,large,classroom,notebook.png,scaled,1,zo,classroom,c1_zo.png,0,1,zo,classroom,c5_zo.png,c,1,1039,92975,248477,50,Woman
644829,OSSe2,v3,1192,624,1280,800,4-14-2023,9-18-4,2,5,large,classroom,powerstrip.png,scaled,0,zo,laundromat,l4_zo.png,1,0,zo,bathroom,b1_zo.png,m,1,1006,92975,248477,50,Woman
644829,OSSe2,v3,1192,624,1280,800,4-14-2023,9-18-4,2,6,small,laundromat,socks.png,scaled,1,zi,laundromat,l0_zi.png,1,0,zi,kitchen,k4_zi.png,m,1,976,92975,248477,50,Woman
644829,OSSe2,v3,1192,624,1280,800,4-14-2023,9-18-4,2,7,large,laundromat,shorts.png,misscaled,0,zi,classroom,c5_zi.png,1,1,zi,classroom,c4_zi.png,m,0,1003,92975,248477,50,Woman
644829,OSSe2,v3,1192,624,1280,800,4-14-2023,9-18-4,2,8,large,classroom,computer.png,misscaled,1,zi,classroom,c0_zi.png,0,0,zi,kitchen,k2_zi.png,m,1,988,92975,248477,50,Woman
644829,OSSe2,v3,1192,624,1280,800,4-14-2023,9-18-4,2,9,large,laundromat,detergent.png,scaled,1,zo,laundromat,l3_zo.png,1,0,zo,bathroom,b5_zo.png,m,1,1178,92975,248477,50,Woman
644829,OSSe2,v3,1192,624,1280,800,4-14-2023,9-18-4,2,10,large,bathroom,hairdryer.png,misscaled,0,zi,laundromat,l1_zi.png,0,1,zi,laundromat,l2_zi.png,m,0,1026,92975,248477,50,Woman
644829,OSSe2,v3,1192,624,1280,800,4-14-2023,9-18-4,2,11,small,classroom,eraser.png,scaled,0,zi,kitchen,k5_zi.png,0,1,zi,kitchen,k0_zi.png,m,0,994,92975,248477,50,Woman
644829,OSSe2,v3,1192,624,1280,800,4-14-2023,9-18-4,2,12,small,bathroom,lipstick.png,misscaled,0,zo,kitchen,k1_zo.png,0,1,zo,kitchen,k3_zo.png,c,1,1421,92975,248477,50,Woman
644829,OSSe2,v3,1192,624,1280,800,4-14-2023,9-18-4,2,13,large,kitchen,toaster.png,scaled,0,zo,laundromat,l1_zo.png,1,0,zo,bathroom,b0_zo.png,m,1,1131,92975,248477,50,Woman
644829,OSSe2,v3,1192,624,1280,800,4-14-2023,9-18-4,2,14,small,kitchen,spoon.png,misscaled,1,zo,kitchen,k4_zo.png,0,1,zo,kitchen,k2_zo.png,c,1,905,92975,248477,50,Woman
644829,OSSe2,v3,1192,624,1280,800,4-14-2023,9-18-4,2,15,small,laundromat,coins.png,scaled,0,zi,bathroom,b4_zi.png,0,1,zi,bathroom,b0_zi.png,c,1,895,92975,248477,50,Woman
109204,OSSe2,v3,1920,969,1920,1080,4-17-2023,0-35-10,2,0,small,bathroom,nailclipper.png,scaled,1,zi,bathroom,b0_zi.png,1,0,zi,kitchen,k0_zi.png,m,1,1072,91475,345565,35,Woman
109204,OSSe2,v3,1920,969,1920,1080,4-17-2023,0-35-10,2,1,small,kitchen,spoon.png,scaled,1,zi,kitchen,k2_zi.png,1,1,zi,kitchen,k1_zi.png,c,1,892,91475,345565,35,Woman
109204,OSSe2,v3,1920,969,1920,1080,4-17-2023,0-35-10,2,2,small,bathroom,floss.png,misscaled,0,zo,laundromat,l0_zo.png,1,1,zo,laundromat,l2_zo.png,c,1,766,91475,345565,35,Woman
109204,OSSe2,v3,1920,969,1920,1080,4-17-2023,0-35-10,2,3,small,classroom,paperclip.png,misscaled,0,zo,kitchen,k5_zo.png,1,0,zo,laundromat,l4_zo.png,c,0,893,91475,345565,35,Woman
109204,OSSe2,v3,1920,969,1920,1080,4-17-2023,0-35-10,2,4,large,classroom,computer.png,misscaled,0,zi,laundromat,l3_zi.png,1,1,zi,laundromat,l1_zi.png,c,1,887,91475,345565,35,Woman
109204,OSSe2,v3,1920,969,1920,1080,4-17-2023,0-35-10,2,5,small,bathroom,lipstick.png,misscaled,1,zo,bathroom,b5_zo.png,1,0,zo,kitchen,k3_zo.png,m,1,1174,91475,345565,35,Woman
109204,OSSe2,v3,1920,969,1920,1080,4-17-2023,0-35-10,2,6,large,bathroom,hairdryer.png,misscaled,1,zi,bathroom,b1_zi.png,1,1,zi,bathroom,b2_zi.png,c,1,878,91475,345565,35,Woman
109204,OSSe2,v3,1920,969,1920,1080,4-17-2023,0-35-10,2,7,large,kitchen,toaster.png,scaled,1,zo,kitchen,k0_zo.png,1,1,zo,kitchen,k1_zo.png,c,1,918,91475,345565,35,Woman
109204,OSSe2,v3,1920,969,1920,1080,4-17-2023,0-35-10,2,8,small,laundromat,socks.png,misscaled,1,zo,laundromat,l3_zo.png,0,1,zo,laundromat,l5_zo.png,c,1,822,91475,345565,35,Woman
109204,OSSe2,v3,1920,969,1920,1080,4-17-2023,0-35-10,2,9,small,classroom,binderclip.png,scaled,0,zi,bathroom,b3_zi.png,1,1,zi,bathroom,b4_zi.png,m,0,1040,91475,345565,35,Woman
109204,OSSe2,v3,1920,969,1920,1080,4-17-2023,0-35-10,2,10,large,classroom,powerstrip.png,scaled,0,zo,kitchen,k2_zo.png,0,0,zo,bathroom,b2_zo.png,c,0,1102,91475,345565,35,Woman
109204,OSSe2,v3,1920,969,1920,1080,4-17-2023,0-35-10,2,11,large,classroom,notebook.png,scaled,0,zo,bathroom,b0_zo.png,1,1,zo,bathroom,b1_zo.png,c,1,1037,91475,345565,35,Woman
109204,OSSe2,v3,1920,969,1920,1080,4-17-2023,0-35-10,2,12,large,laundromat,shirt.png,misscaled,0,zi,bathroom,b5_zi.png,1,0,zi,classroom,c4_zi.png,c,0,726,91475,345565,35,Woman
109204,OSSe2,v3,1920,969,1920,1080,4-17-2023,0-35-10,2,13,large,kitchen,kettle.png,misscaled,1,zi,kitchen,k3_zi.png,0,1,zi,kitchen,k5_zi.png,c,1,1142,91475,345565,35,Woman
109204,OSSe2,v3,1920,969,1920,1080,4-17-2023,0-35-10,2,14,small,kitchen,saltshaker.png,scaled,0,zi,laundromat,l5_zi.png,0,1,zi,laundromat,l2_zi.png,c,1,845,91475,345565,35,Woman
109204,OSSe2,v3,1920,969,1920,1080,4-17-2023,0-35-10,2,15,large,laundromat,shorts.png,scaled,1,zo,laundromat,l1_zo.png,1,0,zo,kitchen,k4_zo.png,m,1,1253,91475,345565,35,Woman
453534,OSSe2,v3,1366,625,1366,768,4-14-2023,9-35-0,2,0,small,kitchen,saltshaker.png,misscaled,0,zo,bathroom,b4_zo.png,1,0,zo,laundromat,l4_zo.png,m,1,6931,127657,409972,23,Man
453534,OSSe2,v3,1366,625,1366,768,4-14-2023,9-35-0,2,1,large,bathroom,loofah.png,misscaled,0,zi,laundromat,l1_zi.png,0,0,zi,kitchen,k4_zi.png,m,1,7044,127657,409972,23,Man
453534,OSSe2,v3,1366,625,1366,768,4-14-2023,9-35-0,2,2,large,bathroom,tissuebox.png,scaled,1,zo,bathroom,b5_zo.png,1,1,zo,bathroom,b2_zo.png,c,1,3544,127657,409972,23,Man
453534,OSSe2,v3,1366,625,1366,768,4-14-2023,9-35-0,2,3,large,bathroom,hairdryer.png,scaled,0,zo,classroom,c0_zo.png,1,0,zo,kitchen,k4_zo.png,m,1,2684,127657,409972,23,Man
453534,OSSe2,v3,1366,625,1366,768,4-14-2023,9-35-0,2,4,large,laundromat,detergent.png,scaled,0,zo,classroom,c5_zo.png,0,0,zo,kitchen,k2_zo.png,m,1,2926,127657,409972,23,Man
453534,OSSe2,v3,1366,625,1366,768,4-14-2023,9-35-0,2,5,small,bathroom,nailclipper.png,scaled,0,zi,laundromat,l5_zi.png,1,0,zi,kitchen,k2_zi.png,m,1,4628,127657,409972,23,Man
453534,OSSe2,v3,1366,625,1366,768,4-14-2023,9-35-0,2,6,small,kitchen,spoon.png,misscaled,0,zo,bathroom,b0_zo.png,0,1,zo,bathroom,b1_zo.png,c,1,3613,127657,409972,23,Man
453534,OSSe2,v3,1366,625,1366,768,4-14-2023,9-35-0,2,7,small,bathroom,lipstick.png,scaled,1,zi,bathroom,b1_zi.png,0,0,zi,laundromat,l4_zi.png,m,1,3103,127657,409972,23,Man
453534,OSSe2,v3,1366,625,1366,768,4-14-2023,9-35-0,2,8,large,kitchen,toaster.png,misscaled,1,zi,kitchen,k3_zi.png,1,0,zi,laundromat,l0_zi.png,m,1,4053,127657,409972,23,Man
453534,OSSe2,v3,1366,625,1366,768,4-14-2023,9-35-0,2,9,small,classroom,eraser.png,scaled,1,zi,classroom,c2_zi.png,0,1,zi,classroom,c1_zi.png,c,1,3483,127657,409972,23,Man
453534,OSSe2,v3,1366,625,1366,768,4-14-2023,9-35-0,2,10,large,kitchen,kettle.png,misscaled,0,zi,laundromat,l3_zi.png,1,0,zi,bathroom,b2_zi.png,m,1,2764,127657,409972,23,Man
453534,OSSe2,v3,1366,625,1366,768,4-14-2023,9-35-0,2,11,large,kitchen,pot.png,misscaled,1,zi,kitchen,k0_zi.png,1,1,zi,kitchen,k5_zi.png,c,1,4414,127657,409972,23,Man
453534,OSSe2,v3,1366,625,1366,768,4-14-2023,9-35-0,2,12,small,classroom,paperclip.png,scaled,0,zi,bathroom,b3_zi.png,1,1,zi,bathroom,b5_zi.png,c,1,3830,127657,409972,23,Man
453534,OSSe2,v3,1366,625,1366,768,4-14-2023,9-35-0,2,13,small,bathroom,floss.png,misscaled,1,zo,bathroom,b3_zo.png,1,0,zo,laundromat,l3_zo.png,m,1,2448,127657,409972,23,Man
453534,OSSe2,v3,1366,625,1366,768,4-14-2023,9-35-0,2,14,large,laundromat,shirt.png,scaled,1,zo,laundromat,l0_zo.png,0,1,zo,laundromat,l5_zo.png,c,1,2715,127657,409972,23,Man
453534,OSSe2,v3,1366,625,1366,768,4-14-2023,9-35-0,2,15,small,kitchen,sponge.png,misscaled,1,zo,kitchen,k3_zo.png,0,1,zo,kitchen,k0_zo.png,m,0,5307,127657,409972,23,Man
680320,OSSe2,v3,1366,625,1366,768,4-17-2023,11-50-21,1,0,small,bathroom,nailclipper.png,misscaled,1,zo,bathroom,b2_zo.png,1,0,zo,laundromat,l4_zo.png,m,1,1635,100269,279763,31,Man
680320,OSSe2,v3,1366,625,1366,768,4-17-2023,11-50-21,1,1,small,laundromat,socks.png,misscaled,1,zo,laundromat,l1_zo.png,1,1,zo,laundromat,l5_zo.png,c,1,1484,100269,279763,31,Man
680320,OSSe2,v3,1366,625,1366,768,4-17-2023,11-50-21,1,2,small,bathroom,floss.png,misscaled,0,zo,kitchen,k3_zo.png,1,0,zo,laundromat,l2_zo.png,m,1,1237,100269,279763,31,Man
680320,OSSe2,v3,1366,625,1366,768,4-17-2023,11-50-21,1,3,small,classroom,binderclip.png,scaled,1,zi,classroom,c4_zi.png,0,1,zi,classroom,c0_zi.png,c,1,1555,100269,279763,31,Man
680320,OSSe2,v3,1366,625,1366,768,4-17-2023,11-50-21,1,4,small,bathroom,lipstick.png,misscaled,0,zo,laundromat,l0_zo.png,1,0,zo,kitchen,k4_zo.png,m,1,1536,100269,279763,31,Man
680320,OSSe2,v3,1366,625,1366,768,4-17-2023,11-50-21,1,5,large,bathroom,hairdryer.png,misscaled,0,zi,laundromat,l4_zi.png,0,0,zi,kitchen,k3_zi.png,c,0,2511,100269,279763,31,Man
680320,OSSe2,v3,1366,625,1366,768,4-17-2023,11-50-21,1,6,large,bathroom,tissuebox.png,scaled,0,zo,laundromat,l3_zo.png,0,0,zo,classroom,c1_zo.png,m,1,1440,100269,279763,31,Man
680320,OSSe2,v3,1366,625,1366,768,4-17-2023,11-50-21,1,7,large,kitchen,pot.png,misscaled,1,zi,kitchen,k2_zi.png,1,1,zi,kitchen,k1_zi.png,m,0,2920,100269,279763,31,Man
680320,OSSe2,v3,1366,625,1366,768,4-17-2023,11-50-21,1,8,small,kitchen,sponge.png,scaled,1,zi,kitchen,k0_zi.png,1,0,zi,laundromat,l2_zi.png,m,1,1665,100269,279763,31,Man
680320,OSSe2,v3,1366,625,1366,768,4-17-2023,11-50-21,1,9,small,kitchen,saltshaker.png,scaled,0,zi,laundromat,l5_zi.png,0,0,zi,classroom,c3_zi.png,m,1,1744,100269,279763,31,Man
680320,OSSe2,v3,1366,625,1366,768,4-17-2023,11-50-21,1,10,large,kitchen,kettle.png,scaled,1,zo,kitchen,k5_zo.png,0,1,zo,kitchen,k2_zo.png,c,1,1409,100269,279763,31,Man
680320,OSSe2,v3,1366,625,1366,768,4-17-2023,11-50-21,1,11,small,kitchen,spoon.png,scaled,0,zi,laundromat,l1_zi.png,0,1,zi,laundromat,l3_zi.png,c,1,1261,100269,279763,31,Man
680320,OSSe2,v3,1366,625,1366,768,4-17-2023,11-50-21,1,12,large,bathroom,loofah.png,misscaled,0,zi,kitchen,k5_zi.png,0,0,zi,laundromat,l0_zi.png,c,0,2848,100269,279763,31,Man
680320,OSSe2,v3,1366,625,1366,768,4-17-2023,11-50-21,1,13,large,kitchen,toaster.png,scaled,0,zo,classroom,c2_zo.png,0,0,zo,bathroom,b4_zo.png,m,1,1348,100269,279763,31,Man
680320,OSSe2,v3,1366,625,1366,768,4-17-2023,11-50-21,1,14,large,classroom,computer.png,scaled,1,zo,classroom,c5_zo.png,1,0,zo,bathroom,b3_zo.png,m,1,1270,100269,279763,31,Man
680320,OSSe2,v3,1366,625,1366,768,4-17-2023,11-50-21,1,15,large,classroom,notebook.png,misscaled,1,zi,classroom,c2_zi.png,1,1,zi,classroom,c5_zi.png,c,1,1187,100269,279763,31,Man
175436,OSSe2,v3,1920,937,1920,1080,4-17-2023,11-10-52,2,0,small,kitchen,sponge.png,scaled,1,zi,kitchen,k2_zi.png,0,0,zi,bathroom,b0_zi.png,m,1,1737,91025,213303,35,Man
175436,OSSe2,v3,1920,937,1920,1080,4-17-2023,11-10-52,2,1,small,laundromat,tidepod.png,misscaled,1,zo,laundromat,l2_zo.png,1,0,zo,bathroom,b1_zo.png,m,1,1901,91025,213303,35,Man
175436,OSSe2,v3,1920,937,1920,1080,4-17-2023,11-10-52,2,2,large,kitchen,kettle.png,misscaled,1,zi,kitchen,k5_zi.png,0,0,zi,laundromat,l4_zi.png,m,1,1374,91025,213303,35,Man
175436,OSSe2,v3,1920,937,1920,1080,4-17-2023,11-10-52,2,3,large,classroom,notebook.png,scaled,0,zo,bathroom,b3_zo.png,1,1,zo,bathroom,b5_zo.png,c,1,1062,91025,213303,35,Man
175436,OSSe2,v3,1920,937,1920,1080,4-17-2023,11-10-52,2,4,small,kitchen,saltshaker.png,misscaled,0,zo,laundromat,l0_zo.png,1,1,zo,laundromat,l3_zo.png,c,1,1087,91025,213303,35,Man
175436,OSSe2,v3,1920,937,1920,1080,4-17-2023,11-10-52,2,5,large,laundromat,shorts.png,misscaled,0,zi,kitchen,k4_zi.png,1,0,zi,bathroom,b1_zi.png,c,0,1455,91025,213303,35,Man
175436,OSSe2,v3,1920,937,1920,1080,4-17-2023,11-10-52,2,6,large,kitchen,pot.png,misscaled,0,zi,bathroom,b3_zi.png,0,1,zi,bathroom,b5_zi.png,c,1,1301,91025,213303,35,Man
175436,OSSe2,v3,1920,937,1920,1080,4-17-2023,11-10-52,2,7,small,kitchen,spoon.png,scaled,0,zi,bathroom,b2_zi.png,0,0,zi,classroom,c0_zi.png,m,1,1029,91025,213303,35,Man
175436,OSSe2,v3,1920,937,1920,1080,4-17-2023,11-10-52,2,8,small,bathroom,lipstick.png,scaled,0,zi,laundromat,l0_zi.png,1,0,zi,classroom,c1_zi.png,m,1,1327,91025,213303,35,Man
175436,OSSe2,v3,1920,937,1920,1080,4-17-2023,11-10-52,2,9,small,laundromat,socks.png,misscaled,1,zo,laundromat,l4_zo.png,0,0,zo,classroom,c3_zo.png,c,0,1143,91025,213303,35,Man
175436,OSSe2,v3,1920,937,1920,1080,4-17-2023,11-10-52,2,10,large,bathroom,tissuebox.png,misscaled,1,zi,bathroom,b4_zi.png,0,0,zi,laundromat,l5_zi.png,m,1,1342,91025,213303,35,Man
175436,OSSe2,v3,1920,937,1920,1080,4-17-2023,11-10-52,2,11,small,classroom,binderclip.png,scaled,1,zi,classroom,c5_zi.png,0,1,zi,classroom,c3_zi.png,c,1,1294,91025,213303,35,Man
175436,OSSe2,v3,1920,937,1920,1080,4-17-2023,11-10-52,2,12,large,laundromat,shirt.png,scaled,0,zo,bathroom,b2_zo.png,1,0,zo,classroom,c4_zo.png,m,1,1134,91025,213303,35,Man
175436,OSSe2,v3,1920,937,1920,1080,4-17-2023,11-10-52,2,13,large,kitchen,toaster.png,scaled,1,zo,kitchen,k5_zo.png,0,0,zo,classroom,c1_zo.png,m,1,1040,91025,213303,35,Man
175436,OSSe2,v3,1920,937,1920,1080,4-17-2023,11-10-52,2,14,large,bathroom,loofah.png,scaled,1,zo,bathroom,b0_zo.png,1,0,zo,laundromat,l1_zo.png,m,1,1632,91025,213303,35,Man
175436,OSSe2,v3,1920,937,1920,1080,4-17-2023,11-10-52,2,15,small,laundromat,coins.png,misscaled,0,zo,kitchen,k1_zo.png,1,1,zo,kitchen,k3_zo.png,c,1,1134,91025,213303,35,Man
913600,OSSe2,v3,1536,714,1536,864,4-17-2023,11-30-33,1,1,large,bathroom,tissuebox.png,scaled,1,zo,bathroom,b1_zo.png,1,1,zo,bathroom,b2_zo.png,c,1,1023,90219,206387,62,Woman
913600,OSSe2,v3,1536,714,1536,864,4-17-2023,11-30-33,1,2,large,kitchen,pot.png,misscaled,1,zi,kitchen,k3_zi.png,0,1,zi,kitchen,k1_zi.png,c,1,1253,90219,206387,62,Woman
913600,OSSe2,v3,1536,714,1536,864,4-17-2023,11-30-33,1,3,small,bathroom,lipstick.png,misscaled,1,zo,bathroom,b5_zo.png,1,0,zo,classroom,c1_zo.png,m,1,938,90219,206387,62,Woman
913600,OSSe2,v3,1536,714,1536,864,4-17-2023,11-30-33,1,4,small,bathroom,nailclipper.png,misscaled,0,zo,classroom,c2_zo.png,1,1,zo,classroom,c3_zo.png,m,0,1111,90219,206387,62,Woman
913600,OSSe2,v3,1536,714,1536,864,4-17-2023,11-30-33,1,5,large,kitchen,kettle.png,misscaled,1,zi,kitchen,k4_zi.png,0,1,zi,kitchen,k5_zi.png,c,1,1344,90219,206387,62,Woman
913600,OSSe2,v3,1536,714,1536,864,4-17-2023,11-30-33,1,6,large,bathroom,hairdryer.png,scaled,0,zo,kitchen,k5_zo.png,0,0,zo,classroom,c4_zo.png,m,1,943,90219,206387,62,Woman
913600,OSSe2,v3,1536,714,1536,864,4-17-2023,11-30-33,1,7,large,bathroom,loofah.png,misscaled,0,zi,laundromat,l3_zi.png,1,0,zi,kitchen,k0_zi.png,m,1,1053,90219,206387,62,Woman
913600,OSSe2,v3,1536,714,1536,864,4-17-2023,11-30-33,1,8,small,laundromat,socks.png,scaled,1,zi,laundromat,l2_zi.png,0,0,zi,classroom,c3_zi.png,m,1,941,90219,206387,62,Woman
913600,OSSe2,v3,1536,714,1536,864,4-17-2023,11-30-33,1,9,small,bathroom,floss.png,misscaled,0,zo,classroom,c5_zo.png,0,0,zo,laundromat,l0_zo.png,m,1,971,90219,206387,62,Woman
913600,OSSe2,v3,1536,714,1536,864,4-17-2023,11-30-33,1,10,small,classroom,paperclip.png,scaled,0,zi,kitchen,k2_zi.png,0,0,zi,bathroom,b0_zi.png,m,1,1709,90219,206387,62,Woman
913600,OSSe2,v3,1536,714,1536,864,4-17-2023,11-30-33,1,11,small,classroom,binderclip.png,scaled,1,zi,classroom,c2_zi.png,0,0,zi,bathroom,b3_zi.png,m,1,1530,90219,206387,62,Woman
913600,OSSe2,v3,1536,714,1536,864,4-17-2023,11-30-33,1,12,large,classroom,computer.png,scaled,0,zo,kitchen,k2_zo.png,1,1,zo,kitchen,k4_zo.png,m,0,1196,90219,206387,62,Woman
913600,OSSe2,v3,1536,714,1536,864,4-17-2023,11-30-33,1,13,small,kitchen,saltshaker.png,scaled,0,zi,laundromat,l5_zi.png,1,0,zi,bathroom,b2_zi.png,m,1,990,90219,206387,62,Woman
913600,OSSe2,v3,1536,714,1536,864,4-17-2023,11-30-33,1,14,small,kitchen,spoon.png,misscaled,1,zo,kitchen,k0_zo.png,0,0,zo,classroom,c0_zo.png,m,1,991,90219,206387,62,Woman
913600,OSSe2,v3,1536,714,1536,864,4-17-2023,11-30-33,1,15,large,laundromat,shirt.png,scaled,1,zo,laundromat,l4_zo.png,1,0,zo,kitchen,k1_zo.png,m,1,1000,90219,206387,62,Woman
382537,OSSe2,v3,1536,722,1536,864,4-11-2023,15-29-55,1,0,small,bathroom,nailclipper.png,scaled,0,zi,kitchen,k2_zi.png,0,1,zi,kitchen,k1_zi.png,c,1,2115,121508,181836,28,Man
382537,OSSe2,v3,1536,722,1536,864,4-11-2023,15-29-55,1,1,large,bathroom,hairdryer.png,scaled,0,zo,laundromat,l3_zo.png,0,0,zo,classroom,c5_zo.png,m,1,1371,121508,181836,28,Man
382537,OSSe2,v3,1536,722,1536,864,4-11-2023,15-29-55,1,2,large,classroom,notebook.png,scaled,1,zo,classroom,c3_zo.png,1,0,zo,kitchen,k2_zo.png,m,1,1783,121508,181836,28,Man
382537,OSSe2,v3,1536,722,1536,864,4-11-2023,15-29-55,1,3,large,laundromat,shirt.png,scaled,1,zo,laundromat,l2_zo.png,0,0,zo,kitchen,k1_zo.png,m,1,14313,121508,181836,28,Man
382537,OSSe2,v3,1536,722,1536,864,4-11-2023,15-29-55,1,4,small,laundromat,coins.png,misscaled,1,zo,laundromat,l5_zo.png,1,1,zo,laundromat,l1_zo.png,c,1,1725,121508,181836,28,Man
382537,OSSe2,v3,1536,722,1536,864,4-11-2023,15-29-55,1,5,small,laundromat,tidepod.png,scaled,1,zi,laundromat,l5_zi.png,0,0,zi,kitchen,k0_zi.png,m,1,3897,121508,181836,28,Man
382537,OSSe2,v3,1536,722,1536,864,4-11-2023,15-29-55,1,6,large,bathroom,tissuebox.png,scaled,0,zo,kitchen,k3_zo.png,1,1,zo,kitchen,k0_zo.png,c,1,3850,121508,181836,28,Man
382537,OSSe2,v3,1536,722,1536,864,4-11-2023,15-29-55,1,7,small,bathroom,lipstick.png,scaled,0,zi,laundromat,l3_zi.png,1,0,zi,kitchen,k3_zi.png,m,1,2971,121508,181836,28,Man
382537,OSSe2,v3,1536,722,1536,864,4-11-2023,15-29-55,1,8,small,kitchen,saltshaker.png,scaled,1,zi,kitchen,k5_zi.png,0,0,zi,classroom,c3_zi.png,m,1,2639,121508,181836,28,Man
382537,OSSe2,v3,1536,722,1536,864,4-11-2023,15-29-55,1,9,large,laundromat,shorts.png,misscaled,0,zi,kitchen,k4_zi.png,0,0,zi,bathroom,b3_zi.png,m,1,2728,121508,181836,28,Man
382537,OSSe2,v3,1536,722,1536,864,4-11-2023,15-29-55,1,10,small,kitchen,sponge.png,misscaled,0,zo,classroom,c4_zo.png,1,1,zo,classroom,c0_zo.png,m,0,6225,121508,181836,28,Man
382537,OSSe2,v3,1536,722,1536,864,4-11-2023,15-29-55,1,11,large,laundromat,detergent.png,misscaled,1,zi,laundromat,l1_zi.png,0,0,zi,classroom,c4_zi.png,m,1,2876,121508,181836,28,Man
382537,OSSe2,v3,1536,722,1536,864,4-11-2023,15-29-55,1,12,large,classroom,computer.png,misscaled,0,zi,laundromat,l2_zi.png,1,0,zi,bathroom,b2_zi.png,m,1,2286,121508,181836,28,Man
382537,OSSe2,v3,1536,722,1536,864,4-11-2023,15-29-55,1,13,small,kitchen,spoon.png,misscaled,0,zo,bathroom,b3_zo.png,1,1,zo,bathroom,b5_zo.png,c,1,1919,121508,181836,28,Man
382537,OSSe2,v3,1536,722,1536,864,4-11-2023,15-29-55,1,14,large,classroom,powerstrip.png,misscaled,1,zi,classroom,c5_zi.png,0,1,zi,classroom,c1_zi.png,c,1,1839,121508,181836,28,Man
382537,OSSe2,v3,1536,722,1536,864,4-11-2023,15-29-55,1,15,small,classroom,paperclip.png,misscaled,1,zo,classroom,c1_zo.png,1,1,zo,classroom,c2_zo.png,c,1,1801,121508,181836,28,Man
824887,OSSe2,v3,1340,690,1440,900,4-17-2023,11-13-6,2,0,large,bathroom,hairdryer.png,misscaled,0,zi,classroom,c2_zi.png,0,1,zi,classroom,c4_zi.png,c,1,741,76986,186183,33,Woman
824887,OSSe2,v3,1340,690,1440,900,4-17-2023,11-13-6,2,1,small,bathroom,nailclipper.png,scaled,0,zi,laundromat,l3_zi.png,0,1,zi,laundromat,l1_zi.png,c,1,879,76986,186183,33,Woman
824887,OSSe2,v3,1340,690,1440,900,4-17-2023,11-13-6,2,2,large,laundromat,shorts.png,misscaled,0,zi,kitchen,k1_zi.png,1,0,zi,classroom,c3_zi.png,m,1,776,76986,186183,33,Woman
824887,OSSe2,v3,1340,690,1440,900,4-17-2023,11-13-6,2,3,large,bathroom,tissuebox.png,scaled,1,zo,bathroom,b2_zo.png,0,1,zo,bathroom,b0_zo.png,c,1,788,76986,186183,33,Woman
824887,OSSe2,v3,1340,690,1440,900,4-17-2023,11-13-6,2,4,small,kitchen,saltshaker.png,scaled,1,zi,kitchen,k3_zi.png,1,1,zi,kitchen,k2_zi.png,c,1,790,76986,186183,33,Woman
824887,OSSe2,v3,1340,690,1440,900,4-17-2023,11-13-6,2,5,large,classroom,powerstrip.png,scaled,0,zo,kitchen,k1_zo.png,1,1,zo,kitchen,k4_zo.png,c,1,728,76986,186183,33,Woman
824887,OSSe2,v3,1340,690,1440,900,4-17-2023,11-13-6,2,6,large,classroom,notebook.png,misscaled,1,zi,classroom,c1_zi.png,1,1,zi,classroom,c5_zi.png,c,1,793,76986,186183,33,Woman
824887,OSSe2,v3,1340,690,1440,900,4-17-2023,11-13-6,2,7,large,bathroom,loofah.png,scaled,1,zo,bathroom,b4_zo.png,1,1,zo,bathroom,b1_zo.png,c,1,777,76986,186183,33,Woman
824887,OSSe2,v3,1340,690,1440,900,4-17-2023,11-13-6,2,8,large,kitchen,pot.png,scaled,0,zo,bathroom,b3_zo.png,0,0,zo,classroom,c4_zo.png,m,1,718,76986,186183,33,Woman
824887,OSSe2,v3,1340,690,1440,900,4-17-2023,11-13-6,2,9,small,bathroom,lipstick.png,misscaled,1,zo,bathroom,b5_zo.png,0,0,zo,classroom,c3_zo.png,m,1,758,76986,186183,33,Woman
824887,OSSe2,v3,1340,690,1440,900,4-17-2023,11-13-6,2,10,small,kitchen,spoon.png,misscaled,1,zo,kitchen,k2_zo.png,1,1,zo,kitchen,k3_zo.png,c,1,813,76986,186183,33,Woman
824887,OSSe2,v3,1340,690,1440,900,4-17-2023,11-13-6,2,11,small,bathroom,floss.png,scaled,1,zi,bathroom,b0_zi.png,1,0,zi,kitchen,k0_zi.png,m,1,822,76986,186183,33,Woman
824887,OSSe2,v3,1340,690,1440,900,4-17-2023,11-13-6,2,12,small,classroom,paperclip.png,misscaled,0,zo,laundromat,l0_zo.png,0,1,zo,laundromat,l1_zo.png,c,1,836,76986,186183,33,Woman
824887,OSSe2,v3,1340,690,1440,900,4-17-2023,11-13-6,2,13,large,laundromat,shirt.png,misscaled,1,zi,laundromat,l0_zi.png,0,0,zi,kitchen,k4_zi.png,m,1,956,76986,186183,33,Woman
824887,OSSe2,v3,1340,690,1440,900,4-17-2023,11-13-6,2,14,small,kitchen,sponge.png,misscaled,0,zo,laundromat,l4_zo.png,0,1,zo,laundromat,l2_zo.png,c,1,1031,76986,186183,33,Woman
824887,OSSe2,v3,1340,690,1440,900,4-17-2023,11-13-6,2,15,small,laundromat,socks.png,scaled,0,zi,bathroom,b2_zi.png,1,0,zi,classroom,c0_zi.png,m,1,691,76986,186183,33,Woman
263356,OSSe2,v3,1366,625,1366,768,4-14-2023,10-20-19,3,0,large,kitchen,toaster.png,scaled,1,zo,kitchen,k0_zo.png,1,0,zo,classroom,c3_zo.png,c,0,2176,108682,528609,37,Man
263356,OSSe2,v3,1366,625,1366,768,4-14-2023,10-20-19,3,1,small,kitchen,spoon.png,scaled,1,zi,kitchen,k2_zi.png,0,0,zi,classroom,c5_zi.png,m,1,1832,108682,528609,37,Man
263356,OSSe2,v3,1366,625,1366,768,4-14-2023,10-20-19,3,2,large,classroom,powerstrip.png,misscaled,0,zi,kitchen,k3_zi.png,0,0,zi,laundromat,l3_zi.png,c,0,2161,108682,528609,37,Man
263356,OSSe2,v3,1366,625,1366,768,4-14-2023,10-20-19,3,3,small,bathroom,lipstick.png,misscaled,1,zo,bathroom,b5_zo.png,1,0,zo,classroom,c5_zo.png,m,1,1581,108682,528609,37,Man
263356,OSSe2,v3,1366,625,1366,768,4-14-2023,10-20-19,3,4,large,bathroom,tissuebox.png,scaled,0,zo,kitchen,k4_zo.png,1,1,zo,kitchen,k2_zo.png,c,1,1379,108682,528609,37,Man
263356,OSSe2,v3,1366,625,1366,768,4-14-2023,10-20-19,3,5,large,bathroom,hairdryer.png,scaled,1,zo,bathroom,b3_zo.png,1,0,zo,kitchen,k5_zo.png,m,1,2476,108682,528609,37,Man
263356,OSSe2,v3,1366,625,1366,768,4-14-2023,10-20-19,3,6,small,classroom,eraser.png,misscaled,1,zo,classroom,c0_zo.png,1,1,zo,classroom,c1_zo.png,c,1,2154,108682,528609,37,Man
263356,OSSe2,v3,1366,625,1366,768,4-14-2023,10-20-19,3,7,small,kitchen,saltshaker.png,scaled,1,zi,kitchen,k0_zi.png,0,1,zi,kitchen,k4_zi.png,c,1,1711,108682,528609,37,Man
263356,OSSe2,v3,1366,625,1366,768,4-14-2023,10-20-19,3,8,small,classroom,binderclip.png,misscaled,0,zo,kitchen,k1_zo.png,0,1,zo,kitchen,k3_zo.png,m,0,2285,108682,528609,37,Man
263356,OSSe2,v3,1366,625,1366,768,4-14-2023,10-20-19,3,9,small,bathroom,nailclipper.png,scaled,0,zi,classroom,c2_zi.png,0,0,zi,laundromat,l1_zi.png,m,1,1900,108682,528609,37,Man
263356,OSSe2,v3,1366,625,1366,768,4-14-2023,10-20-19,3,10,large,kitchen,kettle.png,misscaled,1,zi,kitchen,k1_zi.png,1,0,zi,bathroom,b2_zi.png,m,1,3679,108682,528609,37,Man
263356,OSSe2,v3,1366,625,1366,768,4-14-2023,10-20-19,3,11,small,kitchen,sponge.png,misscaled,0,zo,bathroom,b4_zo.png,1,0,zo,classroom,c2_zo.png,m,1,3735,108682,528609,37,Man
263356,OSSe2,v3,1366,625,1366,768,4-14-2023,10-20-19,3,12,large,laundromat,detergent.png,misscaled,0,zi,kitchen,k5_zi.png,0,0,zi,classroom,c3_zi.png,m,1,1668,108682,528609,37,Man
263356,OSSe2,v3,1366,625,1366,768,4-14-2023,10-20-19,3,13,small,laundromat,tidepod.png,scaled,0,zi,bathroom,b1_zi.png,0,1,zi,bathroom,b5_zi.png,c,1,1655,108682,528609,37,Man
263356,OSSe2,v3,1366,625,1366,768,4-14-2023,10-20-19,3,14,large,bathroom,loofah.png,misscaled,1,zi,bathroom,b0_zi.png,0,0,zi,classroom,c4_zi.png,m,1,3263,108682,528609,37,Man
263356,OSSe2,v3,1366,625,1366,768,4-14-2023,10-20-19,3,15,large,kitchen,pot.png,scaled,0,zo,classroom,c4_zo.png,1,0,zo,bathroom,b0_zo.png,m,1,1823,108682,528609,37,Man
533105,OSSe2,v3,1278,795,2560,1080,4-14-2023,10-52-42,2,0,large,bathroom,tissuebox.png,scaled,0,zo,classroom,c3_zo.png,0,1,zo,classroom,c5_zo.png,c,1,1308,78523,241019,39,Man
533105,OSSe2,v3,1278,795,2560,1080,4-14-2023,10-52-42,2,1,small,bathroom,floss.png,scaled,0,zi,laundromat,l5_zi.png,0,1,zi,laundromat,l2_zi.png,c,1,838,78523,241019,39,Man
533105,OSSe2,v3,1278,795,2560,1080,4-14-2023,10-52-42,2,2,large,laundromat,detergent.png,scaled,1,zo,laundromat,l0_zo.png,0,1,zo,laundromat,l3_zo.png,c,1,734,78523,241019,39,Man
533105,OSSe2,v3,1278,795,2560,1080,4-14-2023,10-52-42,2,3,small,laundromat,coins.png,scaled,1,zi,laundromat,l1_zi.png,1,1,zi,laundromat,l3_zi.png,c,1,614,78523,241019,39,Man
533105,OSSe2,v3,1278,795,2560,1080,4-14-2023,10-52-42,2,4,small,bathroom,lipstick.png,misscaled,0,zo,laundromat,l2_zo.png,0,0,zo,kitchen,k1_zo.png,m,1,1252,78523,241019,39,Man
533105,OSSe2,v3,1278,795,2560,1080,4-14-2023,10-52-42,2,5,large,laundromat,shorts.png,scaled,1,zo,laundromat,l5_zo.png,1,0,zo,bathroom,b0_zo.png,m,1,909,78523,241019,39,Man
533105,OSSe2,v3,1278,795,2560,1080,4-14-2023,10-52-42,2,6,large,bathroom,hairdryer.png,misscaled,0,zi,classroom,c3_zi.png,0,1,zi,classroom,c4_zi.png,c,1,722,78523,241019,39,Man
533105,OSSe2,v3,1278,795,2560,1080,4-14-2023,10-52-42,2,7,large,classroom,notebook.png,misscaled,1,zi,classroom,c2_zi.png,0,0,zi,laundromat,l0_zi.png,m,1,782,78523,241019,39,Man
533105,OSSe2,v3,1278,795,2560,1080,4-14-2023,10-52-42,2,8,small,laundromat,socks.png,scaled,0,zi,bathroom,b3_zi.png,0,1,zi,bathroom,b2_zi.png,c,1,876,78523,241019,39,Man
533105,OSSe2,v3,1278,795,2560,1080,4-14-2023,10-52-42,2,9,large,bathroom,loofah.png,misscaled,1,zi,bathroom,b4_zi.png,0,0,zi,laundromat,l4_zi.png,m,1,850,78523,241019,39,Man
533105,OSSe2,v3,1278,795,2560,1080,4-14-2023,10-52-42,2,10,small,classroom,eraser.png,scaled,1,zi,classroom,c0_zi.png,1,1,zi,classroom,c5_zi.png,c,1,752,78523,241019,39,Man
533105,OSSe2,v3,1278,795,2560,1080,4-14-2023,10-52-42,2,11,large,kitchen,kettle.png,scaled,0,zo,classroom,c2_zo.png,0,0,zo,laundromat,l1_zo.png,m,1,783,78523,241019,39,Man
533105,OSSe2,v3,1278,795,2560,1080,4-14-2023,10-52-42,2,12,small,kitchen,saltshaker.png,misscaled,1,zo,kitchen,k3_zo.png,1,1,zo,kitchen,k0_zo.png,c,1,937,78523,241019,39,Man
533105,OSSe2,v3,1278,795,2560,1080,4-14-2023,10-52-42,2,13,large,kitchen,toaster.png,misscaled,0,zi,classroom,c1_zi.png,0,0,zi,bathroom,b5_zi.png,m,1,801,78523,241019,39,Man
533105,OSSe2,v3,1278,795,2560,1080,4-14-2023,10-52-42,2,14,small,classroom,binderclip.png,misscaled,1,zo,classroom,c0_zo.png,1,1,zo,classroom,c4_zo.png,c,1,792,78523,241019,39,Man
533105,OSSe2,v3,1278,795,2560,1080,4-14-2023,10-52-42,2,15,small,laundromat,tidepod.png,misscaled,0,zo,bathroom,b5_zo.png,0,1,zo,bathroom,b2_zo.png,c,1,1434,78523,241019,39,Man
496484,OSSe2,v3,959,940,1536,864,4-17-2023,10-26-50,1,0,small,laundromat,coins.png,scaled,0,zi,bathroom,b1_zi.png,1,0,zi,classroom,c5_zi.png,c,0,1710,84222,273884,32,Man
496484,OSSe2,v3,959,940,1536,864,4-17-2023,10-26-50,1,1,large,kitchen,toaster.png,misscaled,1,zi,kitchen,k0_zi.png,0,1,zi,kitchen,k1_zi.png,c,1,1039,84222,273884,32,Man
496484,OSSe2,v3,959,940,1536,864,4-17-2023,10-26-50,1,2,large,laundromat,shorts.png,scaled,1,zo,laundromat,l5_zo.png,1,1,zo,laundromat,l1_zo.png,c,1,704,84222,273884,32,Man
496484,OSSe2,v3,959,940,1536,864,4-17-2023,10-26-50,1,3,small,kitchen,sponge.png,misscaled,1,zo,kitchen,k1_zo.png,0,1,zo,kitchen,k4_zo.png,c,1,634,84222,273884,32,Man
496484,OSSe2,v3,959,940,1536,864,4-17-2023,10-26-50,1,4,small,laundromat,socks.png,scaled,1,zi,laundromat,l0_zi.png,1,0,zi,bathroom,b2_zi.png,m,1,733,84222,273884,32,Man
496484,OSSe2,v3,959,940,1536,864,4-17-2023,10-26-50,1,5,large,bathroom,loofah.png,misscaled,0,zi,laundromat,l1_zi.png,1,0,zi,classroom,c3_zi.png,m,1,809,84222,273884,32,Man
496484,OSSe2,v3,959,940,1536,864,4-17-2023,10-26-50,1,6,small,classroom,eraser.png,misscaled,1,zo,classroom,c0_zo.png,1,1,zo,classroom,c1_zo.png,c,1,628,84222,273884,32,Man
496484,OSSe2,v3,959,940,1536,864,4-17-2023,10-26-50,1,7,small,kitchen,spoon.png,scaled,1,zi,kitchen,k3_zi.png,1,1,zi,kitchen,k5_zi.png,c,1,591,84222,273884,32,Man
496484,OSSe2,v3,959,940,1536,864,4-17-2023,10-26-50,1,8,small,classroom,binderclip.png,misscaled,0,zo,kitchen,k5_zo.png,0,1,zo,kitchen,k0_zo.png,m,0,1119,84222,273884,32,Man
496484,OSSe2,v3,959,940,1536,864,4-17-2023,10-26-50,1,9,small,classroom,paperclip.png,scaled,0,zi,laundromat,l4_zi.png,0,1,zi,laundromat,l3_zi.png,c,1,1032,84222,273884,32,Man
496484,OSSe2,v3,959,940,1536,864,4-17-2023,10-26-50,1,10,large,classroom,notebook.png,scaled,0,zo,bathroom,b5_zo.png,1,0,zo,laundromat,l2_zo.png,m,1,1356,84222,273884,32,Man
496484,OSSe2,v3,959,940,1536,864,4-17-2023,10-26-50,1,11,small,bathroom,lipstick.png,misscaled,0,zo,kitchen,k3_zo.png,0,0,zo,classroom,c3_zo.png,m,1,831,84222,273884,32,Man
496484,OSSe2,v3,959,940,1536,864,4-17-2023,10-26-50,1,12,large,kitchen,pot.png,scaled,0,zo,laundromat,l4_zo.png,1,1,zo,laundromat,l3_zo.png,c,1,704,84222,273884,32,Man
496484,OSSe2,v3,959,940,1536,864,4-17-2023,10-26-50,1,13,large,kitchen,kettle.png,misscaled,0,zi,classroom,c2_zi.png,0,0,zi,bathroom,b5_zi.png,m,1,807,84222,273884,32,Man
496484,OSSe2,v3,959,940,1536,864,4-17-2023,10-26-50,1,14,large,classroom,computer.png,misscaled,1,zi,classroom,c0_zi.png,0,0,zi,laundromat,l2_zi.png,m,1,735,84222,273884,32,Man
496484,OSSe2,v3,959,940,1536,864,4-17-2023,10-26-50,1,15,large,classroom,powerstrip.png,scaled,1,zo,classroom,c5_zo.png,0,0,zo,bathroom,b4_zo.png,m,1,764,84222,273884,32,Man
112494,OSSe2,v3,1353,629,1353,761,4-17-2023,12-26-6,1,0,large,bathroom,tissuebox.png,scaled,1,zo,bathroom,b4_zo.png,0,1,zo,bathroom,b0_zo.png,c,1,1933,102296,324374,37,Woman
112494,OSSe2,v3,1353,629,1353,761,4-17-2023,12-26-6,1,1,small,laundromat,socks.png,misscaled,1,zo,laundromat,l0_zo.png,1,0,zo,classroom,c5_zo.png,m,1,2520,102296,324374,37,Woman
112494,OSSe2,v3,1353,629,1353,761,4-17-2023,12-26-6,1,2,large,kitchen,pot.png,misscaled,1,zi,kitchen,k1_zi.png,1,1,zi,kitchen,k3_zi.png,c,1,2011,102296,324374,37,Woman
112494,OSSe2,v3,1353,629,1353,761,4-17-2023,12-26-6,1,3,small,classroom,paperclip.png,misscaled,0,zo,bathroom,b3_zo.png,0,0,zo,kitchen,k0_zo.png,c,0,1935,102296,324374,37,Woman
112494,OSSe2,v3,1353,629,1353,761,4-17-2023,12-26-6,1,4,large,classroom,computer.png,scaled,1,zo,classroom,c0_zo.png,0,1,zo,classroom,c3_zo.png,c,1,1478,102296,324374,37,Woman
112494,OSSe2,v3,1353,629,1353,761,4-17-2023,12-26-6,1,5,large,kitchen,kettle.png,scaled,0,zo,bathroom,b1_zo.png,1,1,zo,bathroom,b2_zo.png,c,1,1610,102296,324374,37,Woman
112494,OSSe2,v3,1353,629,1353,761,4-17-2023,12-26-6,1,6,large,classroom,notebook.png,misscaled,0,zi,bathroom,b0_zi.png,0,0,zi,laundromat,l2_zi.png,m,1,1624,102296,324374,37,Woman
112494,OSSe2,v3,1353,629,1353,761,4-17-2023,12-26-6,1,7,small,classroom,binderclip.png,scaled,1,zi,classroom,c4_zi.png,1,0,zi,kitchen,k2_zi.png,m,1,1500,102296,324374,37,Woman
112494,OSSe2,v3,1353,629,1353,761,4-17-2023,12-26-6,1,8,large,laundromat,shorts.png,misscaled,1,zi,laundromat,l1_zi.png,0,1,zi,laundromat,l5_zi.png,c,1,1618,102296,324374,37,Woman
112494,OSSe2,v3,1353,629,1353,761,4-17-2023,12-26-6,1,9,small,kitchen,sponge.png,scaled,0,zi,laundromat,l3_zi.png,0,1,zi,laundromat,l4_zi.png,c,1,1499,102296,324374,37,Woman
112494,OSSe2,v3,1353,629,1353,761,4-17-2023,12-26-6,1,10,small,bathroom,nailclipper.png,scaled,0,zi,kitchen,k4_zi.png,0,1,zi,kitchen,k5_zi.png,m,0,1886,102296,324374,37,Woman
112494,OSSe2,v3,1353,629,1353,761,4-17-2023,12-26-6,1,11,small,kitchen,spoon.png,misscaled,1,zo,kitchen,k3_zo.png,1,0,zo,bathroom,b5_zo.png,m,1,1914,102296,324374,37,Woman
112494,OSSe2,v3,1353,629,1353,761,4-17-2023,12-26-6,1,12,small,classroom,eraser.png,scaled,1,zi,classroom,c1_zi.png,0,0,zi,bathroom,b5_zi.png,m,1,1686,102296,324374,37,Woman
112494,OSSe2,v3,1353,629,1353,761,4-17-2023,12-26-6,1,13,large,kitchen,toaster.png,misscaled,0,zi,laundromat,l0_zi.png,1,0,zi,bathroom,b4_zi.png,c,0,1906,102296,324374,37,Woman
112494,OSSe2,v3,1353,629,1353,761,4-17-2023,12-26-6,1,14,small,laundromat,coins.png,misscaled,0,zo,kitchen,k1_zo.png,0,1,zo,kitchen,k5_zo.png,c,1,1593,102296,324374,37,Woman
112494,OSSe2,v3,1353,629,1353,761,4-17-2023,12-26-6,1,15,large,bathroom,hairdryer.png,scaled,0,zo,laundromat,l2_zo.png,1,1,zo,laundromat,l4_zo.png,c,1,2380,102296,324374,37,Woman
481775,OSSe2,v3,1536,722,1536,864,4-11-2023,15-7-55,1,0,small,classroom,paperclip.png,scaled,1,zi,classroom,c0_zi.png,0,1,zi,classroom,c5_zi.png,c,1,3005,99146,164565,27,Man
481775,OSSe2,v3,1536,722,1536,864,4-11-2023,15-7-55,1,1,small,bathroom,nailclipper.png,misscaled,0,zo,laundromat,l1_zo.png,0,1,zo,laundromat,l0_zo.png,m,0,1273,99146,164565,27,Man
481775,OSSe2,v3,1536,722,1536,864,4-11-2023,15-7-55,1,2,small,classroom,binderclip.png,scaled,0,zi,kitchen,k0_zi.png,0,1,zi,kitchen,k5_zi.png,c,1,2207,99146,164565,27,Man
481775,OSSe2,v3,1536,722,1536,864,4-11-2023,15-7-55,1,3,large,laundromat,detergent.png,scaled,0,zo,bathroom,b3_zo.png,0,1,zo,bathroom,b0_zo.png,c,1,1454,99146,164565,27,Man
481775,OSSe2,v3,1536,722,1536,864,4-11-2023,15-7-55,1,4,small,bathroom,floss.png,scaled,1,zi,bathroom,b0_zi.png,0,0,zi,classroom,c2_zi.png,m,1,1242,99146,164565,27,Man
481775,OSSe2,v3,1536,722,1536,864,4-11-2023,15-7-55,1,5,large,laundromat,shirt.png,scaled,1,zo,laundromat,l2_zo.png,0,1,zo,laundromat,l5_zo.png,c,1,1935,99146,164565,27,Man
481775,OSSe2,v3,1536,722,1536,864,4-11-2023,15-7-55,1,6,large,bathroom,tissuebox.png,misscaled,1,zi,bathroom,b5_zi.png,1,0,zi,kitchen,k4_zi.png,m,1,1590,99146,164565,27,Man
481775,OSSe2,v3,1536,722,1536,864,4-11-2023,15-7-55,1,7,large,kitchen,toaster.png,misscaled,1,zi,kitchen,k1_zi.png,0,0,zi,bathroom,b2_zi.png,m,1,1551,99146,164565,27,Man
481775,OSSe2,v3,1536,722,1536,864,4-11-2023,15-7-55,1,8,large,kitchen,kettle.png,scaled,0,zo,bathroom,b2_zo.png,0,0,zo,classroom,c3_zo.png,m,1,1573,99146,164565,27,Man
481775,OSSe2,v3,1536,722,1536,864,4-11-2023,15-7-55,1,9,large,bathroom,hairdryer.png,misscaled,0,zi,classroom,c4_zi.png,1,1,zi,classroom,c1_zi.png,c,1,1307,99146,164565,27,Man
481775,OSSe2,v3,1536,722,1536,864,4-11-2023,15-7-55,1,10,small,bathroom,lipstick.png,misscaled,1,zo,bathroom,b1_zo.png,0,0,zo,laundromat,l4_zo.png,m,1,2466,99146,164565,27,Man
481775,OSSe2,v3,1536,722,1536,864,4-11-2023,15-7-55,1,11,large,laundromat,shorts.png,scaled,1,zo,laundromat,l3_zo.png,1,0,zo,bathroom,b5_zo.png,m,1,2021,99146,164565,27,Man
481775,OSSe2,v3,1536,722,1536,864,4-11-2023,15-7-55,1,12,large,bathroom,loofah.png,misscaled,0,zi,kitchen,k3_zi.png,0,1,zi,kitchen,k2_zi.png,c,1,1680,99146,164565,27,Man
481775,OSSe2,v3,1536,722,1536,864,4-11-2023,15-7-55,1,13,small,kitchen,spoon.png,scaled,0,zi,bathroom,b4_zi.png,0,1,zi,bathroom,b3_zi.png,c,1,2976,99146,164565,27,Man
481775,OSSe2,v3,1536,722,1536,864,4-11-2023,15-7-55,1,14,small,classroom,eraser.png,misscaled,0,zo,bathroom,b4_zo.png,1,0,zo,kitchen,k2_zo.png,m,1,1811,99146,164565,27,Man
481775,OSSe2,v3,1536,722,1536,864,4-11-2023,15-7-55,1,15,small,kitchen,sponge.png,misscaled,1,zo,kitchen,k1_zo.png,0,1,zo,kitchen,k5_zo.png,c,1,3930,99146,164565,27,Man
614119,OSSe2,v3,2327,1208,2560,1440,4-14-2023,10-34-2,2,0,large,bathroom,hairdryer.png,scaled,1,zo,bathroom,b4_zo.png,1,0,zo,laundromat,l2_zo.png,m,1,923,89839,603993,25,Man
614119,OSSe2,v3,2327,1208,2560,1440,4-14-2023,10-34-2,2,1,small,laundromat,tidepod.png,scaled,0,zi,bathroom,b5_zi.png,0,1,zi,bathroom,b0_zi.png,m,0,1874,89839,603993,25,Man
614119,OSSe2,v3,2327,1208,2560,1440,4-14-2023,10-34-2,2,2,small,laundromat,socks.png,misscaled,0,zo,kitchen,k0_zo.png,1,1,zo,kitchen,k1_zo.png,c,1,1217,89839,603993,25,Man
614119,OSSe2,v3,2327,1208,2560,1440,4-14-2023,10-34-2,2,3,large,classroom,notebook.png,misscaled,1,zi,classroom,c0_zi.png,1,1,zi,classroom,c4_zi.png,c,1,2365,89839,603993,25,Man
614119,OSSe2,v3,2327,1208,2560,1440,4-14-2023,10-34-2,2,4,small,classroom,binderclip.png,misscaled,0,zo,laundromat,l4_zo.png,1,0,zo,kitchen,k3_zo.png,m,1,1071,89839,603993,25,Man
614119,OSSe2,v3,2327,1208,2560,1440,4-14-2023,10-34-2,2,5,large,bathroom,loofah.png,misscaled,0,zi,laundromat,l4_zi.png,1,1,zi,laundromat,l1_zi.png,c,1,1167,89839,603993,25,Man
614119,OSSe2,v3,2327,1208,2560,1440,4-14-2023,10-34-2,2,6,small,kitchen,spoon.png,scaled,0,zi,classroom,c1_zi.png,0,0,zi,laundromat,l2_zi.png,m,1,1120,89839,603993,25,Man
614119,OSSe2,v3,2327,1208,2560,1440,4-14-2023,10-34-2,2,7,large,bathroom,tissuebox.png,misscaled,0,zi,laundromat,l5_zi.png,0,1,zi,laundromat,l3_zi.png,c,1,1014,89839,603993,25,Man
614119,OSSe2,v3,2327,1208,2560,1440,4-14-2023,10-34-2,2,8,small,kitchen,sponge.png,scaled,1,zi,kitchen,k5_zi.png,1,1,zi,kitchen,k3_zi.png,c,1,1433,89839,603993,25,Man
614119,OSSe2,v3,2327,1208,2560,1440,4-14-2023,10-34-2,2,9,small,bathroom,floss.png,misscaled,1,zo,bathroom,b3_zo.png,1,0,zo,laundromat,l0_zo.png,m,1,1583,89839,603993,25,Man
614119,OSSe2,v3,2327,1208,2560,1440,4-14-2023,10-34-2,2,10,large,laundromat,detergent.png,misscaled,1,zi,laundromat,l0_zi.png,0,0,zi,classroom,c5_zi.png,m,1,1258,89839,603993,25,Man
614119,OSSe2,v3,2327,1208,2560,1440,4-14-2023,10-34-2,2,11,large,kitchen,kettle.png,scaled,1,zo,kitchen,k4_zo.png,1,1,zo,kitchen,k5_zo.png,c,1,1581,89839,603993,25,Man
614119,OSSe2,v3,2327,1208,2560,1440,4-14-2023,10-34-2,2,12,large,kitchen,pot.png,scaled,0,zo,classroom,c1_zo.png,1,0,zo,laundromat,l5_zo.png,m,1,1411,89839,603993,25,Man
614119,OSSe2,v3,2327,1208,2560,1440,4-14-2023,10-34-2,2,13,large,laundromat,shirt.png,scaled,0,zo,bathroom,b5_zo.png,1,1,zo,bathroom,b1_zo.png,c,1,1375,89839,603993,25,Man
614119,OSSe2,v3,2327,1208,2560,1440,4-14-2023,10-34-2,2,14,small,bathroom,nailclipper.png,scaled,1,zi,bathroom,b1_zi.png,0,0,zi,kitchen,k2_zi.png,m,1,1830,89839,603993,25,Man
614119,OSSe2,v3,2327,1208,2560,1440,4-14-2023,10-34-2,2,15,small,bathroom,lipstick.png,misscaled,1,zo,bathroom,b2_zo.png,1,0,zo,kitchen,k2_zo.png,m,1,1463,89839,603993,25,Man
414602,OSSe2,v3,1070,427,1092,614,4-14-2023,9-42-30,1,0,large,laundromat,shirt.png,scaled,1,zo,laundromat,l1_zo.png,1,0,zo,classroom,c4_zo.png,m,1,2439,97682,408138,73,Woman
414602,OSSe2,v3,1070,427,1092,614,4-14-2023,9-42-30,1,1,small,classroom,paperclip.png,scaled,0,zi,laundromat,l1_zi.png,1,1,zi,laundromat,l0_zi.png,c,1,3629,97682,408138,73,Woman
414602,OSSe2,v3,1070,427,1092,614,4-14-2023,9-42-30,1,2,small,classroom,eraser.png,misscaled,0,zo,kitchen,k5_zo.png,1,0,zo,laundromat,l3_zo.png,m,1,1269,97682,408138,73,Woman
414602,OSSe2,v3,1070,427,1092,614,4-14-2023,9-42-30,1,3,large,kitchen,kettle.png,misscaled,0,zi,laundromat,l3_zi.png,1,0,zi,classroom,c5_zi.png,m,1,2046,97682,408138,73,Woman
414602,OSSe2,v3,1070,427,1092,614,4-14-2023,9-42-30,1,4,large,bathroom,hairdryer.png,misscaled,1,zi,bathroom,b2_zi.png,1,0,zi,classroom,c0_zi.png,m,1,1379,97682,408138,73,Woman
414602,OSSe2,v3,1070,427,1092,614,4-14-2023,9-42-30,1,5,small,bathroom,lipstick.png,misscaled,1,zo,bathroom,b0_zo.png,0,1,zo,bathroom,b1_zo.png,c,1,1257,97682,408138,73,Woman
414602,OSSe2,v3,1070,427,1092,614,4-14-2023,9-42-30,1,6,large,classroom,notebook.png,scaled,0,zo,bathroom,b5_zo.png,0,0,zo,kitchen,k0_zo.png,m,1,1479,97682,408138,73,Woman
414602,OSSe2,v3,1070,427,1092,614,4-14-2023,9-42-30,1,7,large,bathroom,tissuebox.png,scaled,0,zo,laundromat,l5_zo.png,0,1,zo,laundromat,l2_zo.png,c,1,1758,97682,408138,73,Woman
414602,OSSe2,v3,1070,427,1092,614,4-14-2023,9-42-30,1,8,small,classroom,binderclip.png,misscaled,1,zo,classroom,c5_zo.png,1,1,zo,classroom,c0_zo.png,c,1,1472,97682,408138,73,Woman
414602,OSSe2,v3,1070,427,1092,614,4-14-2023,9-42-30,1,9,small,bathroom,floss.png,scaled,0,zi,laundromat,l4_zi.png,1,0,zi,kitchen,k1_zi.png,m,1,2082,97682,408138,73,Woman
414602,OSSe2,v3,1070,427,1092,614,4-14-2023,9-42-30,1,10,large,kitchen,toaster.png,scaled,1,zo,kitchen,k1_zo.png,0,0,zo,bathroom,b3_zo.png,m,1,1360,97682,408138,73,Woman
414602,OSSe2,v3,1070,427,1092,614,4-14-2023,9-42-30,1,11,large,laundromat,shorts.png,misscaled,0,zi,bathroom,b5_zi.png,1,0,zi,kitchen,k0_zi.png,m,1,1152,97682,408138,73,Woman
414602,OSSe2,v3,1070,427,1092,614,4-14-2023,9-42-30,1,12,small,laundromat,coins.png,misscaled,0,zo,classroom,c1_zo.png,1,0,zo,bathroom,b4_zo.png,m,1,2132,97682,408138,73,Woman
414602,OSSe2,v3,1070,427,1092,614,4-14-2023,9-42-30,1,13,small,kitchen,sponge.png,scaled,1,zi,kitchen,k5_zi.png,1,1,zi,kitchen,k3_zi.png,m,0,2693,97682,408138,73,Woman
414602,OSSe2,v3,1070,427,1092,614,4-14-2023,9-42-30,1,14,large,bathroom,loofah.png,misscaled,1,zi,bathroom,b1_zi.png,0,1,zi,bathroom,b0_zi.png,c,1,1926,97682,408138,73,Woman
414602,OSSe2,v3,1070,427,1092,614,4-14-2023,9-42-30,1,15,small,bathroom,nailclipper.png,scaled,1,zi,bathroom,b3_zi.png,1,0,zi,kitchen,k4_zi.png,m,1,2554,97682,408138,73,Woman
491478,OSSe2,v3,1366,625,1366,768,4-14-2023,10-44-31,1,0,small,laundromat,socks.png,scaled,0,zi,kitchen,k4_zi.png,1,1,zi,kitchen,k0_zi.png,c,1,1479,86427,287290,25,Woman
491478,OSSe2,v3,1366,625,1366,768,4-14-2023,10-44-31,1,1,large,bathroom,hairdryer.png,misscaled,1,zi,bathroom,b3_zi.png,0,1,zi,bathroom,b4_zi.png,c,1,2966,86427,287290,25,Woman
491478,OSSe2,v3,1366,625,1366,768,4-14-2023,10-44-31,1,2,small,kitchen,sponge.png,misscaled,1,zo,kitchen,k0_zo.png,1,1,zo,kitchen,k1_zo.png,c,1,1512,86427,287290,25,Woman
491478,OSSe2,v3,1366,625,1366,768,4-14-2023,10-44-31,1,3,small,bathroom,nailclipper.png,misscaled,1,zo,bathroom,b2_zo.png,0,1,zo,bathroom,b5_zo.png,c,1,1108,86427,287290,25,Woman
491478,OSSe2,v3,1366,625,1366,768,4-14-2023,10-44-31,1,4,small,bathroom,lipstick.png,misscaled,0,zo,classroom,c5_zo.png,1,1,zo,classroom,c3_zo.png,c,1,1099,86427,287290,25,Woman
491478,OSSe2,v3,1366,625,1366,768,4-14-2023,10-44-31,1,5,large,laundromat,detergent.png,scaled,0,zo,kitchen,k3_zo.png,0,0,zo,classroom,c4_zo.png,m,1,1301,86427,287290,25,Woman
491478,OSSe2,v3,1366,625,1366,768,4-14-2023,10-44-31,1,6,small,kitchen,saltshaker.png,scaled,1,zi,kitchen,k1_zi.png,0,0,zi,laundromat,l5_zi.png,m,1,1367,86427,287290,25,Woman
491478,OSSe2,v3,1366,625,1366,768,4-14-2023,10-44-31,1,7,small,classroom,paperclip.png,scaled,0,zi,kitchen,k5_zi.png,0,1,zi,kitchen,k2_zi.png,c,1,1364,86427,287290,25,Woman
491478,OSSe2,v3,1366,625,1366,768,4-14-2023,10-44-31,1,8,large,bathroom,loofah.png,scaled,1,zo,bathroom,b0_zo.png,1,0,zo,laundromat,l3_zo.png,m,1,1406,86427,287290,25,Woman
491478,OSSe2,v3,1366,625,1366,768,4-14-2023,10-44-31,1,9,large,kitchen,kettle.png,misscaled,0,zi,laundromat,l1_zi.png,1,0,zi,bathroom,b5_zi.png,m,1,1254,86427,287290,25,Woman
491478,OSSe2,v3,1366,625,1366,768,4-14-2023,10-44-31,1,10,small,classroom,binderclip.png,scaled,1,zi,classroom,c1_zi.png,0,0,zi,kitchen,k3_zi.png,m,1,1107,86427,287290,25,Woman
491478,OSSe2,v3,1366,625,1366,768,4-14-2023,10-44-31,1,11,large,laundromat,shirt.png,scaled,1,zo,laundromat,l0_zo.png,1,0,zo,bathroom,b3_zo.png,m,1,1113,86427,287290,25,Woman
491478,OSSe2,v3,1366,625,1366,768,4-14-2023,10-44-31,1,12,small,classroom,eraser.png,misscaled,0,zo,bathroom,b1_zo.png,0,1,zo,bathroom,b4_zo.png,c,1,1327,86427,287290,25,Woman
491478,OSSe2,v3,1366,625,1366,768,4-14-2023,10-44-31,1,13,large,laundromat,shorts.png,misscaled,1,zi,laundromat,l2_zi.png,1,1,zi,laundromat,l4_zi.png,c,1,1463,86427,287290,25,Woman
