subjID,experimentName,versionName,windowWidth,windowHeight,screenWidth,screenHeight,startDate,startTime,pracTries,trialNum,objectSize,objectCategory,object,misscaled,objectScene1SemanticCongruency,scene1ZoomName,scene1Category,scene1,keyPress,accuracy,RT,experimentTime,totalTime,age,gender
347162,OSSe3,v1,1440,789,1440,900,5-9-2023,21-21-45,2,0,large,classroom,computer.png,misscaled,0,zi,kitchen,k0_zi.png,m,1,1694,69451,248164,44,Woman
347162,OSSe3,v1,1440,789,1440,900,5-9-2023,21-21-45,2,1,large,classroom,notebook.png,misscaled,1,zi,classroom,c3_zi.png,c,1,1892,69451,248164,44,Woman
347162,OSSe3,v1,1440,789,1440,900,5-9-2023,21-21-45,2,2,large,kitchen,toaster.png,misscaled,1,zi,kitchen,k3_zi.png,m,0,1880,69451,248164,44,Woman
347162,OSSe3,v1,1440,789,1440,900,5-9-2023,21-21-45,2,3,large,classroom,clipboard.png,scaled,0,zo,bathroom,b2_zo.png,m,1,1624,69451,248164,44,Woman
347162,OSSe3,v1,1440,789,1440,900,5-9-2023,21-21-45,2,4,large,kitchen,pot.png,scaled,1,zo,kitchen,k1_zo.png,m,0,1329,69451,248164,44,Woman
347162,OSSe3,v1,1440,789,1440,900,5-9-2023,21-21-45,2,5,small,classroom,eraser.png,misscaled,1,zo,classroom,c0_zo.png,c,1,1849,69451,248164,44,Woman
347162,OSSe3,v1,1440,789,1440,900,5-9-2023,21-21-45,2,6,small,classroom,paperclip.png,misscaled,1,zo,classroom,c4_zo.png,c,1,1279,69451,248164,44,Woman
347162,OSSe3,v1,1440,789,1440,900,5-9-2023,21-21-45,2,7,large,bathroom,hairdryer.png,misscaled,0,zi,kitchen,k1_zi.png,m,1,1470,69451,248164,44,Woman
347162,OSSe3,v1,1440,789,1440,900,5-9-2023,21-21-45,2,8,small,classroom,binderclip.png,misscaled,0,zo,bathroom,b4_zo.png,m,1,1438,69451,248164,44,Woman
347162,OSSe3,v1,1440,789,1440,900,5-9-2023,21-21-45,2,9,small,kitchen,sponge.png,scaled,1,zi,kitchen,k4_zi.png,c,1,1591,69451,248164,44,Woman
347162,OSSe3,v1,1440,789,1440,900,5-9-2023,21-21-45,2,10,large,kitchen,kettle.png,scaled,0,zo,laundromat,l2_zo.png,m,1,1503,69451,248164,44,Woman
347162,OSSe3,v1,1440,789,1440,900,5-9-2023,21-21-45,2,11,small,kitchen,spoon.png,scaled,0,zi,classroom,c4_zi.png,m,1,1356,69451,248164,44,Woman
347162,OSSe3,v1,1440,789,1440,900,5-9-2023,21-21-45,2,12,small,laundromat,coins.png,misscaled,0,zo,kitchen,k4_zo.png,c,0,1488,69451,248164,44,Woman
347162,OSSe3,v1,1440,789,1440,900,5-9-2023,21-21-45,2,13,large,laundromat,shorts.png,scaled,1,zo,laundromat,l4_zo.png,m,0,1715,69451,248164,44,Woman
347162,OSSe3,v1,1440,789,1440,900,5-9-2023,21-21-45,2,14,small,bathroom,nailclipper.png,scaled,0,zi,laundromat,l3_zi.png,m,1,1759,69451,248164,44,Woman
347162,OSSe3,v1,1440,789,1440,900,5-9-2023,21-21-45,2,15,small,bathroom,floss.png,scaled,1,zi,bathroom,b0_zi.png,c,1,1553,69451,248164,44,Woman
897857,OSSe3,v1,1366,768,1366,768,5-10-2023,7-44-16,2,0,small,kitchen,spoon.png,misscaled,1,zo,kitchen,k2_zo.png,c,1,3591,77160,326560,43,Woman
897857,OSSe3,v1,1366,768,1366,768,5-10-2023,7-44-16,2,1,large,bathroom,loofah.png,misscaled,0,zi,kitchen,k5_zi.png,m,1,2725,77160,326560,43,Woman
897857,OSSe3,v1,1366,768,1366,768,5-10-2023,7-44-16,2,2,large,kitchen,toaster.png,scaled,0,zo,classroom,c1_zo.png,m,1,2591,77160,326560,43,Woman
897857,OSSe3,v1,1366,768,1366,768,5-10-2023,7-44-16,2,3,large,kitchen,pot.png,scaled,0,zo,bathroom,b1_zo.png,m,1,2363,77160,326560,43,Woman
897857,OSSe3,v1,1366,768,1366,768,5-10-2023,7-44-16,2,4,small,laundromat,tidepod.png,misscaled,0,zo,bathroom,b4_zo.png,c,0,2424,77160,326560,43,Woman
897857,OSSe3,v1,1366,768,1366,768,5-10-2023,7-44-16,2,5,small,classroom,paperclip.png,scaled,0,zi,bathroom,b0_zi.png,m,1,3697,77160,326560,43,Woman
897857,OSSe3,v1,1366,768,1366,768,5-10-2023,7-44-16,2,6,large,laundromat,detergent.png,misscaled,1,zi,laundromat,l3_zi.png,c,1,3093,77160,326560,43,Woman
897857,OSSe3,v1,1366,768,1366,768,5-10-2023,7-44-16,2,7,small,kitchen,saltshaker.png,scaled,1,zi,kitchen,k2_zi.png,c,1,2435,77160,326560,43,Woman
897857,OSSe3,v1,1366,768,1366,768,5-10-2023,7-44-16,2,8,large,classroom,notebook.png,scaled,1,zo,classroom,c3_zo.png,c,1,2585,77160,326560,43,Woman
897857,OSSe3,v1,1366,768,1366,768,5-10-2023,7-44-16,2,9,large,bathroom,tissuebox.png,misscaled,1,zi,bathroom,b2_zi.png,m,0,1988,77160,326560,43,Woman
897857,OSSe3,v1,1366,768,1366,768,5-10-2023,7-44-16,2,10,small,classroom,binderclip.png,misscaled,0,zo,bathroom,b5_zo.png,m,1,1870,77160,326560,43,Woman
897857,OSSe3,v1,1366,768,1366,768,5-10-2023,7-44-16,2,11,small,classroom,eraser.png,scaled,1,zi,classroom,c5_zi.png,c,1,1700,77160,326560,43,Woman
897857,OSSe3,v1,1366,768,1366,768,5-10-2023,7-44-16,2,12,large,classroom,clipboard.png,scaled,1,zo,classroom,c4_zo.png,c,1,1563,77160,326560,43,Woman
897857,OSSe3,v1,1366,768,1366,768,5-10-2023,7-44-16,2,13,large,kitchen,kettle.png,misscaled,0,zi,laundromat,l2_zi.png,m,1,1515,77160,326560,43,Woman
897857,OSSe3,v1,1366,768,1366,768,5-10-2023,7-44-16,2,14,small,bathroom,floss.png,misscaled,1,zo,bathroom,b3_zo.png,c,1,2323,77160,326560,43,Woman
897857,OSSe3,v1,1366,768,1366,768,5-10-2023,7-44-16,2,15,small,kitchen,sponge.png,scaled,0,zi,laundromat,l5_zi.png,c,0,2603,77160,326560,43,Woman
706163,OSSe3,v1,1366,649,1366,768,5-9-2023,11-25-52,1,0,small,classroom,eraser.png,misscaled,1,zo,classroom,c3_zo.png,c,1,1502,49102,149259,43,Woman
706163,OSSe3,v1,1366,649,1366,768,5-9-2023,11-25-52,1,1,large,laundromat,shirt.png,scaled,1,zo,laundromat,l1_zo.png,c,1,1165,49102,149259,43,Woman
706163,OSSe3,v1,1366,649,1366,768,5-9-2023,11-25-52,1,2,large,kitchen,toaster.png,misscaled,1,zi,kitchen,k0_zi.png,c,1,1197,49102,149259,43,Woman
706163,OSSe3,v1,1366,649,1366,768,5-9-2023,11-25-52,1,3,large,classroom,notebook.png,misscaled,0,zi,bathroom,b4_zi.png,m,1,940,49102,149259,43,Woman
706163,OSSe3,v1,1366,649,1366,768,5-9-2023,11-25-52,1,4,small,classroom,paperclip.png,scaled,1,zi,classroom,c2_zi.png,c,1,1150,49102,149259,43,Woman
706163,OSSe3,v1,1366,649,1366,768,5-9-2023,11-25-52,1,5,large,kitchen,pot.png,misscaled,0,zi,bathroom,b5_zi.png,m,1,1267,49102,149259,43,Woman
706163,OSSe3,v1,1366,649,1366,768,5-9-2023,11-25-52,1,6,small,bathroom,nailclipper.png,scaled,0,zi,classroom,c1_zi.png,m,1,1180,49102,149259,43,Woman
706163,OSSe3,v1,1366,649,1366,768,5-9-2023,11-25-52,1,7,small,bathroom,lipstick.png,misscaled,0,zo,laundromat,l2_zo.png,m,1,938,49102,149259,43,Woman
706163,OSSe3,v1,1366,649,1366,768,5-9-2023,11-25-52,1,8,small,kitchen,saltshaker.png,misscaled,1,zo,kitchen,k0_zo.png,c,1,935,49102,149259,43,Woman
706163,OSSe3,v1,1366,649,1366,768,5-9-2023,11-25-52,1,9,large,laundromat,shorts.png,scaled,0,zo,classroom,c1_zo.png,m,1,962,49102,149259,43,Woman
706163,OSSe3,v1,1366,649,1366,768,5-9-2023,11-25-52,1,10,large,bathroom,tissuebox.png,misscaled,1,zi,bathroom,b0_zi.png,c,1,873,49102,149259,43,Woman
706163,OSSe3,v1,1366,649,1366,768,5-9-2023,11-25-52,1,11,small,kitchen,sponge.png,misscaled,0,zo,laundromat,l3_zo.png,m,1,1400,49102,149259,43,Woman
706163,OSSe3,v1,1366,649,1366,768,5-9-2023,11-25-52,1,12,small,classroom,binderclip.png,scaled,0,zi,laundromat,l3_zi.png,m,1,796,49102,149259,43,Woman
706163,OSSe3,v1,1366,649,1366,768,5-9-2023,11-25-52,1,13,large,laundromat,detergent.png,scaled,0,zo,classroom,c2_zo.png,m,1,908,49102,149259,43,Woman
706163,OSSe3,v1,1366,649,1366,768,5-9-2023,11-25-52,1,14,small,kitchen,spoon.png,scaled,1,zi,kitchen,k5_zi.png,c,1,1042,49102,149259,43,Woman
706163,OSSe3,v1,1366,649,1366,768,5-9-2023,11-25-52,1,15,large,bathroom,hairdryer.png,scaled,1,zo,bathroom,b4_zo.png,c,1,803,49102,149259,43,Woman
885418,OSSe3,v1,1920,929,1920,1080,5-9-2023,14-25-15,1,0,small,laundromat,coins.png,scaled,0,zi,classroom,c5_zi.png,m,1,1974,56610,137349,41,Woman
885418,OSSe3,v1,1920,929,1920,1080,5-9-2023,14-25-15,1,1,small,bathroom,floss.png,misscaled,1,zo,bathroom,b4_zo.png,c,1,1552,56610,137349,41,Woman
885418,OSSe3,v1,1920,929,1920,1080,5-9-2023,14-25-15,1,2,small,kitchen,spoon.png,misscaled,1,zo,kitchen,k0_zo.png,c,1,824,56610,137349,41,Woman
885418,OSSe3,v1,1920,929,1920,1080,5-9-2023,14-25-15,1,3,small,kitchen,sponge.png,misscaled,0,zo,classroom,c1_zo.png,m,1,895,56610,137349,41,Woman
885418,OSSe3,v1,1920,929,1920,1080,5-9-2023,14-25-15,1,4,large,bathroom,loofah.png,misscaled,1,zi,bathroom,b1_zi.png,c,1,1373,56610,137349,41,Woman
885418,OSSe3,v1,1920,929,1920,1080,5-9-2023,14-25-15,1,5,small,classroom,binderclip.png,scaled,1,zi,classroom,c2_zi.png,c,1,1127,56610,137349,41,Woman
885418,OSSe3,v1,1920,929,1920,1080,5-9-2023,14-25-15,1,6,small,laundromat,tidepod.png,scaled,0,zi,kitchen,k2_zi.png,c,0,1039,56610,137349,41,Woman
885418,OSSe3,v1,1920,929,1920,1080,5-9-2023,14-25-15,1,7,large,kitchen,kettle.png,scaled,1,zo,kitchen,k2_zo.png,c,1,1022,56610,137349,41,Woman
885418,OSSe3,v1,1920,929,1920,1080,5-9-2023,14-25-15,1,8,small,laundromat,socks.png,misscaled,0,zo,classroom,c5_zo.png,m,1,1063,56610,137349,41,Woman
885418,OSSe3,v1,1920,929,1920,1080,5-9-2023,14-25-15,1,9,large,laundromat,detergent.png,misscaled,1,zi,laundromat,l5_zi.png,c,1,920,56610,137349,41,Woman
885418,OSSe3,v1,1920,929,1920,1080,5-9-2023,14-25-15,1,10,large,bathroom,hairdryer.png,scaled,1,zo,bathroom,b3_zo.png,c,1,1085,56610,137349,41,Woman
885418,OSSe3,v1,1920,929,1920,1080,5-9-2023,14-25-15,1,11,small,bathroom,lipstick.png,scaled,1,zi,bathroom,b2_zi.png,c,1,1026,56610,137349,41,Woman
885418,OSSe3,v1,1920,929,1920,1080,5-9-2023,14-25-15,1,12,large,bathroom,tissuebox.png,scaled,0,zo,kitchen,k5_zo.png,c,0,911,56610,137349,41,Woman
885418,OSSe3,v1,1920,929,1920,1080,5-9-2023,14-25-15,1,13,large,classroom,clipboard.png,misscaled,0,zi,bathroom,b0_zi.png,m,1,1723,56610,137349,41,Woman
885418,OSSe3,v1,1920,929,1920,1080,5-9-2023,14-25-15,1,14,large,laundromat,shirt.png,misscaled,0,zi,bathroom,b3_zi.png,m,1,908,56610,137349,41,Woman
885418,OSSe3,v1,1920,929,1920,1080,5-9-2023,14-25-15,1,15,large,kitchen,toaster.png,scaled,0,zo,bathroom,b0_zo.png,m,1,1021,56610,137349,41,Woman
943710,OSSe3,v1,1366,624,1366,768,5-9-2023,14-22-25,1,0,large,bathroom,loofah.png,misscaled,1,zi,bathroom,b1_zi.png,c,1,1345,53765,139896,44,Man
943710,OSSe3,v1,1366,624,1366,768,5-9-2023,14-22-25,1,1,small,kitchen,saltshaker.png,misscaled,0,zo,classroom,c3_zo.png,c,0,1306,53765,139896,44,Man
943710,OSSe3,v1,1366,624,1366,768,5-9-2023,14-22-25,1,2,large,kitchen,toaster.png,scaled,1,zo,kitchen,k1_zo.png,c,1,1130,53765,139896,44,Man
943710,OSSe3,v1,1366,624,1366,768,5-9-2023,14-22-25,1,3,small,laundromat,socks.png,misscaled,1,zo,laundromat,l4_zo.png,c,1,1114,53765,139896,44,Man
943710,OSSe3,v1,1366,624,1366,768,5-9-2023,14-22-25,1,4,large,classroom,notebook.png,misscaled,1,zi,classroom,c0_zi.png,c,1,1035,53765,139896,44,Man
943710,OSSe3,v1,1366,624,1366,768,5-9-2023,14-22-25,1,5,large,bathroom,tissuebox.png,scaled,0,zo,laundromat,l1_zo.png,m,1,1607,53765,139896,44,Man
943710,OSSe3,v1,1366,624,1366,768,5-9-2023,14-22-25,1,6,large,classroom,clipboard.png,misscaled,0,zi,kitchen,k2_zi.png,m,1,1228,53765,139896,44,Man
943710,OSSe3,v1,1366,624,1366,768,5-9-2023,14-22-25,1,7,small,classroom,paperclip.png,scaled,0,zi,laundromat,l1_zi.png,m,1,1084,53765,139896,44,Man
943710,OSSe3,v1,1366,624,1366,768,5-9-2023,14-22-25,1,8,large,classroom,computer.png,misscaled,0,zi,kitchen,k4_zi.png,m,1,1211,53765,139896,44,Man
943710,OSSe3,v1,1366,624,1366,768,5-9-2023,14-22-25,1,9,large,kitchen,kettle.png,scaled,0,zo,classroom,c4_zo.png,m,1,1052,53765,139896,44,Man
943710,OSSe3,v1,1366,624,1366,768,5-9-2023,14-22-25,1,10,large,laundromat,detergent.png,scaled,1,zo,laundromat,l0_zo.png,c,1,1036,53765,139896,44,Man
943710,OSSe3,v1,1366,624,1366,768,5-9-2023,14-22-25,1,11,small,kitchen,sponge.png,scaled,1,zi,kitchen,k0_zi.png,c,1,1196,53765,139896,44,Man
943710,OSSe3,v1,1366,624,1366,768,5-9-2023,14-22-25,1,12,small,kitchen,spoon.png,misscaled,0,zo,laundromat,l2_zo.png,m,1,988,53765,139896,44,Man
943710,OSSe3,v1,1366,624,1366,768,5-9-2023,14-22-25,1,13,small,laundromat,coins.png,misscaled,1,zo,laundromat,l5_zo.png,c,1,1089,53765,139896,44,Man
943710,OSSe3,v1,1366,624,1366,768,5-9-2023,14-22-25,1,14,small,bathroom,floss.png,scaled,1,zi,bathroom,b5_zi.png,c,1,1209,53765,139896,44,Man
943710,OSSe3,v1,1366,624,1366,768,5-9-2023,14-22-25,1,15,small,bathroom,lipstick.png,scaled,0,zi,laundromat,l0_zi.png,m,1,1068,53765,139896,44,Man
321915,OSSe3,v1,1600,789,1600,900,5-9-2023,13-37-40,1,0,small,bathroom,nailclipper.png,scaled,1,zi,bathroom,b0_zi.png,c,1,2111,52471,185288,38,Man
321915,OSSe3,v1,1600,789,1600,900,5-9-2023,13-37-40,1,1,small,classroom,paperclip.png,misscaled,1,zo,classroom,c4_zo.png,c,1,1477,52471,185288,38,Man
321915,OSSe3,v1,1600,789,1600,900,5-9-2023,13-37-40,1,2,small,kitchen,saltshaker.png,misscaled,1,zo,kitchen,k5_zo.png,c,1,1175,52471,185288,38,Man
321915,OSSe3,v1,1600,789,1600,900,5-9-2023,13-37-40,1,3,large,classroom,clipboard.png,misscaled,0,zi,laundromat,l4_zi.png,m,1,1804,52471,185288,38,Man
321915,OSSe3,v1,1600,789,1600,900,5-9-2023,13-37-40,1,4,large,laundromat,shirt.png,misscaled,1,zi,laundromat,l3_zi.png,c,1,1235,52471,185288,38,Man
321915,OSSe3,v1,1600,789,1600,900,5-9-2023,13-37-40,1,5,large,classroom,computer.png,misscaled,1,zi,classroom,c5_zi.png,c,1,1013,52471,185288,38,Man
321915,OSSe3,v1,1600,789,1600,900,5-9-2023,13-37-40,1,6,small,bathroom,floss.png,misscaled,0,zo,kitchen,k4_zo.png,m,1,1809,52471,185288,38,Man
321915,OSSe3,v1,1600,789,1600,900,5-9-2023,13-37-40,1,7,small,bathroom,lipstick.png,scaled,0,zi,kitchen,k3_zi.png,m,1,995,52471,185288,38,Man
321915,OSSe3,v1,1600,789,1600,900,5-9-2023,13-37-40,1,8,small,classroom,binderclip.png,scaled,0,zi,bathroom,b4_zi.png,m,1,1577,52471,185288,38,Man
321915,OSSe3,v1,1600,789,1600,900,5-9-2023,13-37-40,1,9,small,laundromat,coins.png,misscaled,0,zo,kitchen,k2_zo.png,m,1,1018,52471,185288,38,Man
321915,OSSe3,v1,1600,789,1600,900,5-9-2023,13-37-40,1,10,large,kitchen,kettle.png,scaled,1,zo,kitchen,k3_zo.png,c,1,996,52471,185288,38,Man
321915,OSSe3,v1,1600,789,1600,900,5-9-2023,13-37-40,1,11,large,kitchen,toaster.png,scaled,1,zo,kitchen,k0_zo.png,c,1,1090,52471,185288,38,Man
321915,OSSe3,v1,1600,789,1600,900,5-9-2023,13-37-40,1,12,large,laundromat,detergent.png,scaled,0,zo,classroom,c5_zo.png,m,1,961,52471,185288,38,Man
321915,OSSe3,v1,1600,789,1600,900,5-9-2023,13-37-40,1,13,large,laundromat,shorts.png,misscaled,0,zi,kitchen,k0_zi.png,m,1,960,52471,185288,38,Man
321915,OSSe3,v1,1600,789,1600,900,5-9-2023,13-37-40,1,14,large,bathroom,hairdryer.png,scaled,0,zo,laundromat,l5_zo.png,m,1,1102,52471,185288,38,Man
321915,OSSe3,v1,1600,789,1600,900,5-9-2023,13-37-40,1,15,small,kitchen,sponge.png,scaled,1,zi,kitchen,k1_zi.png,c,1,996,52471,185288,38,Man
661009,OSSe3,v1,1536,722,1536,864,5-9-2023,11-6-2,2,0,large,bathroom,loofah.png,scaled,0,zo,laundromat,l4_zo.png,m,1,8050,57349,163293,33,Woman
661009,OSSe3,v1,1536,722,1536,864,5-9-2023,11-6-2,2,1,small,bathroom,nailclipper.png,misscaled,1,zo,bathroom,b4_zo.png,m,0,879,57349,163293,33,Woman
661009,OSSe3,v1,1536,722,1536,864,5-9-2023,11-6-2,2,2,large,classroom,clipboard.png,scaled,1,zo,classroom,c5_zo.png,c,1,1117,57349,163293,33,Woman
661009,OSSe3,v1,1536,722,1536,864,5-9-2023,11-6-2,2,3,small,laundromat,socks.png,scaled,1,zi,laundromat,l1_zi.png,c,1,978,57349,163293,33,Woman
661009,OSSe3,v1,1536,722,1536,864,5-9-2023,11-6-2,2,4,large,kitchen,pot.png,misscaled,1,zi,kitchen,k4_zi.png,c,1,804,57349,163293,33,Woman
661009,OSSe3,v1,1536,722,1536,864,5-9-2023,11-6-2,2,5,large,classroom,notebook.png,misscaled,1,zi,classroom,c4_zi.png,c,1,761,57349,163293,33,Woman
661009,OSSe3,v1,1536,722,1536,864,5-9-2023,11-6-2,2,6,large,classroom,computer.png,scaled,0,zo,laundromat,l3_zo.png,m,1,919,57349,163293,33,Woman
661009,OSSe3,v1,1536,722,1536,864,5-9-2023,11-6-2,2,7,small,bathroom,floss.png,misscaled,1,zo,bathroom,b5_zo.png,c,1,1152,57349,163293,33,Woman
661009,OSSe3,v1,1536,722,1536,864,5-9-2023,11-6-2,2,8,small,laundromat,coins.png,scaled,0,zi,kitchen,k2_zi.png,m,1,1140,57349,163293,33,Woman
661009,OSSe3,v1,1536,722,1536,864,5-9-2023,11-6-2,2,9,small,bathroom,lipstick.png,scaled,1,zi,bathroom,b1_zi.png,c,1,770,57349,163293,33,Woman
661009,OSSe3,v1,1536,722,1536,864,5-9-2023,11-6-2,2,10,large,bathroom,tissuebox.png,misscaled,0,zi,classroom,c0_zi.png,m,1,1158,57349,163293,33,Woman
661009,OSSe3,v1,1536,722,1536,864,5-9-2023,11-6-2,2,11,small,classroom,paperclip.png,misscaled,0,zo,laundromat,l0_zo.png,m,1,958,57349,163293,33,Woman
661009,OSSe3,v1,1536,722,1536,864,5-9-2023,11-6-2,2,12,small,laundromat,tidepod.png,scaled,0,zi,classroom,c1_zi.png,m,1,881,57349,163293,33,Woman
661009,OSSe3,v1,1536,722,1536,864,5-9-2023,11-6-2,2,13,large,bathroom,hairdryer.png,scaled,1,zo,bathroom,b2_zo.png,c,1,858,57349,163293,33,Woman
661009,OSSe3,v1,1536,722,1536,864,5-9-2023,11-6-2,2,14,large,laundromat,shirt.png,misscaled,0,zi,kitchen,k5_zi.png,m,1,968,57349,163293,33,Woman
661009,OSSe3,v1,1536,722,1536,864,5-9-2023,11-6-2,2,15,small,classroom,binderclip.png,misscaled,0,zo,bathroom,b0_zo.png,m,1,833,57349,163293,33,Woman
905481,OSSe3,v1,1920,969,1920,1080,5-10-2023,12-1-17,2,0,large,kitchen,toaster.png,scaled,1,zo,kitchen,k0_zo.png,c,1,1477,64182,370556,40,Man
905481,OSSe3,v1,1920,969,1920,1080,5-10-2023,12-1-17,2,1,large,kitchen,pot.png,scaled,1,zo,kitchen,k5_zo.png,c,1,1117,64182,370556,40,Man
905481,OSSe3,v1,1920,969,1920,1080,5-10-2023,12-1-17,2,2,large,kitchen,kettle.png,misscaled,1,zi,kitchen,k3_zi.png,c,1,1131,64182,370556,40,Man
905481,OSSe3,v1,1920,969,1920,1080,5-10-2023,12-1-17,2,3,small,laundromat,tidepod.png,scaled,1,zi,laundromat,l2_zi.png,c,1,1469,64182,370556,40,Man
905481,OSSe3,v1,1920,969,1920,1080,5-10-2023,12-1-17,2,4,large,bathroom,loofah.png,misscaled,0,zi,classroom,c1_zi.png,m,1,1206,64182,370556,40,Man
905481,OSSe3,v1,1920,969,1920,1080,5-10-2023,12-1-17,2,5,small,classroom,paperclip.png,scaled,0,zi,laundromat,l4_zi.png,m,1,1653,64182,370556,40,Man
905481,OSSe3,v1,1920,969,1920,1080,5-10-2023,12-1-17,2,6,large,laundromat,shirt.png,misscaled,0,zi,kitchen,k0_zi.png,c,0,1464,64182,370556,40,Man
905481,OSSe3,v1,1920,969,1920,1080,5-10-2023,12-1-17,2,7,large,laundromat,detergent.png,scaled,0,zo,classroom,c5_zo.png,m,1,1492,64182,370556,40,Man
905481,OSSe3,v1,1920,969,1920,1080,5-10-2023,12-1-17,2,8,small,laundromat,socks.png,misscaled,0,zo,bathroom,b3_zo.png,m,1,1373,64182,370556,40,Man
905481,OSSe3,v1,1920,969,1920,1080,5-10-2023,12-1-17,2,9,large,laundromat,shorts.png,scaled,0,zo,bathroom,b1_zo.png,m,1,1433,64182,370556,40,Man
905481,OSSe3,v1,1920,969,1920,1080,5-10-2023,12-1-17,2,10,small,kitchen,saltshaker.png,misscaled,1,zo,kitchen,k3_zo.png,c,1,1393,64182,370556,40,Man
905481,OSSe3,v1,1920,969,1920,1080,5-10-2023,12-1-17,2,11,small,classroom,binderclip.png,misscaled,0,zo,laundromat,l3_zo.png,m,1,1249,64182,370556,40,Man
905481,OSSe3,v1,1920,969,1920,1080,5-10-2023,12-1-17,2,12,small,bathroom,nailclipper.png,scaled,1,zi,bathroom,b2_zi.png,m,0,1259,64182,370556,40,Man
905481,OSSe3,v1,1920,969,1920,1080,5-10-2023,12-1-17,2,13,large,bathroom,tissuebox.png,misscaled,1,zi,bathroom,b4_zi.png,c,1,2147,64182,370556,40,Man
905481,OSSe3,v1,1920,969,1920,1080,5-10-2023,12-1-17,2,14,small,laundromat,coins.png,misscaled,1,zo,laundromat,l4_zo.png,m,0,1888,64182,370556,40,Man
905481,OSSe3,v1,1920,969,1920,1080,5-10-2023,12-1-17,2,15,small,bathroom,floss.png,scaled,0,zi,classroom,c0_zi.png,m,1,1306,64182,370556,40,Man
609177,OSSe3,v1,1440,789,1440,900,5-9-2023,20-44-43,1,0,small,kitchen,spoon.png,scaled,1,zi,kitchen,k5_zi.png,c,1,1222,59878,118299,35,Woman
609177,OSSe3,v1,1440,789,1440,900,5-9-2023,20-44-43,1,1,large,kitchen,pot.png,misscaled,1,zi,kitchen,k4_zi.png,c,1,1100,59878,118299,35,Woman
609177,OSSe3,v1,1440,789,1440,900,5-9-2023,20-44-43,1,2,small,kitchen,sponge.png,scaled,0,zi,bathroom,b0_zi.png,m,1,1181,59878,118299,35,Woman
609177,OSSe3,v1,1440,789,1440,900,5-9-2023,20-44-43,1,3,small,kitchen,saltshaker.png,misscaled,0,zo,laundromat,l1_zo.png,m,1,1543,59878,118299,35,Woman
609177,OSSe3,v1,1440,789,1440,900,5-9-2023,20-44-43,1,4,small,laundromat,socks.png,scaled,1,zi,laundromat,l4_zi.png,c,1,1087,59878,118299,35,Woman
609177,OSSe3,v1,1440,789,1440,900,5-9-2023,20-44-43,1,5,small,bathroom,floss.png,misscaled,0,zo,kitchen,k4_zo.png,c,0,1745,59878,118299,35,Woman
609177,OSSe3,v1,1440,789,1440,900,5-9-2023,20-44-43,1,6,small,bathroom,lipstick.png,scaled,0,zi,classroom,c1_zi.png,m,1,1172,59878,118299,35,Woman
609177,OSSe3,v1,1440,789,1440,900,5-9-2023,20-44-43,1,7,large,laundromat,shorts.png,scaled,1,zo,laundromat,l3_zo.png,c,1,1326,59878,118299,35,Woman
609177,OSSe3,v1,1440,789,1440,900,5-9-2023,20-44-43,1,8,large,classroom,clipboard.png,misscaled,1,zi,classroom,c0_zi.png,c,1,1630,59878,118299,35,Woman
609177,OSSe3,v1,1440,789,1440,900,5-9-2023,20-44-43,1,9,small,bathroom,nailclipper.png,misscaled,1,zo,bathroom,b4_zo.png,m,0,1272,59878,118299,35,Woman
609177,OSSe3,v1,1440,789,1440,900,5-9-2023,20-44-43,1,10,small,classroom,binderclip.png,misscaled,1,zo,classroom,c0_zo.png,c,1,1725,59878,118299,35,Woman
609177,OSSe3,v1,1440,789,1440,900,5-9-2023,20-44-43,1,11,large,laundromat,detergent.png,misscaled,0,zi,kitchen,k2_zi.png,m,1,1887,59878,118299,35,Woman
609177,OSSe3,v1,1440,789,1440,900,5-9-2023,20-44-43,1,12,large,classroom,notebook.png,scaled,1,zo,classroom,c2_zo.png,c,1,1078,59878,118299,35,Woman
609177,OSSe3,v1,1440,789,1440,900,5-9-2023,20-44-43,1,13,large,classroom,computer.png,misscaled,0,zi,kitchen,k1_zi.png,m,1,1205,59878,118299,35,Woman
609177,OSSe3,v1,1440,789,1440,900,5-9-2023,20-44-43,1,14,large,bathroom,loofah.png,scaled,0,zo,laundromat,l0_zo.png,m,1,1599,59878,118299,35,Woman
609177,OSSe3,v1,1440,789,1440,900,5-9-2023,20-44-43,1,15,large,bathroom,tissuebox.png,scaled,0,zo,classroom,c5_zo.png,c,0,1076,59878,118299,35,Woman
336411,OSSe3,v1,1366,657,1366,768,5-10-2023,20-48-8,1,0,small,laundromat,socks.png,misscaled,1,zo,laundromat,l1_zo.png,c,1,2963,62565,127553,32,Man
336411,OSSe3,v1,1366,657,1366,768,5-10-2023,20-48-8,1,1,large,kitchen,toaster.png,scaled,0,zo,laundromat,l5_zo.png,m,1,1610,62565,127553,32,Man
336411,OSSe3,v1,1366,657,1366,768,5-10-2023,20-48-8,1,2,large,bathroom,loofah.png,scaled,1,zo,bathroom,b4_zo.png,m,0,1656,62565,127553,32,Man
336411,OSSe3,v1,1366,657,1366,768,5-10-2023,20-48-8,1,3,large,classroom,notebook.png,scaled,0,zo,bathroom,b2_zo.png,m,1,1444,62565,127553,32,Man
336411,OSSe3,v1,1366,657,1366,768,5-10-2023,20-48-8,1,4,large,bathroom,tissuebox.png,scaled,1,zo,bathroom,b1_zo.png,c,1,782,62565,127553,32,Man
336411,OSSe3,v1,1366,657,1366,768,5-10-2023,20-48-8,1,5,small,bathroom,floss.png,misscaled,0,zo,classroom,c3_zo.png,m,1,1022,62565,127553,32,Man
336411,OSSe3,v1,1366,657,1366,768,5-10-2023,20-48-8,1,6,large,kitchen,kettle.png,misscaled,1,zi,kitchen,k4_zi.png,c,1,1102,62565,127553,32,Man
336411,OSSe3,v1,1366,657,1366,768,5-10-2023,20-48-8,1,7,large,bathroom,hairdryer.png,misscaled,1,zi,bathroom,b0_zi.png,c,1,1373,62565,127553,32,Man
336411,OSSe3,v1,1366,657,1366,768,5-10-2023,20-48-8,1,8,small,bathroom,lipstick.png,scaled,0,zi,kitchen,k5_zi.png,m,1,1110,62565,127553,32,Man
336411,OSSe3,v1,1366,657,1366,768,5-10-2023,20-48-8,1,9,small,classroom,paperclip.png,misscaled,1,zo,classroom,c2_zo.png,c,1,1047,62565,127553,32,Man
336411,OSSe3,v1,1366,657,1366,768,5-10-2023,20-48-8,1,10,small,bathroom,nailclipper.png,misscaled,0,zo,classroom,c0_zo.png,c,0,1213,62565,127553,32,Man
336411,OSSe3,v1,1366,657,1366,768,5-10-2023,20-48-8,1,11,small,laundromat,tidepod.png,scaled,0,zi,classroom,c5_zi.png,m,1,1054,62565,127553,32,Man
336411,OSSe3,v1,1366,657,1366,768,5-10-2023,20-48-8,1,12,large,classroom,clipboard.png,misscaled,0,zi,bathroom,b5_zi.png,c,0,990,62565,127553,32,Man
336411,OSSe3,v1,1366,657,1366,768,5-10-2023,20-48-8,1,13,small,laundromat,coins.png,scaled,1,zi,laundromat,l4_zi.png,c,1,1133,62565,127553,32,Man
336411,OSSe3,v1,1366,657,1366,768,5-10-2023,20-48-8,1,14,large,kitchen,pot.png,misscaled,0,zi,classroom,c1_zi.png,m,1,1587,62565,127553,32,Man
336411,OSSe3,v1,1366,657,1366,768,5-10-2023,20-48-8,1,15,small,kitchen,spoon.png,scaled,1,zi,kitchen,k2_zi.png,c,1,1378,62565,127553,32,Man
537075,OSSe3,v1,1920,969,1920,1080,5-9-2023,23-49-45,1,0,large,bathroom,hairdryer.png,scaled,1,zo,bathroom,b5_zo.png,c,1,1935,67184,135062,35,Man
537075,OSSe3,v1,1920,969,1920,1080,5-9-2023,23-49-45,1,1,small,laundromat,coins.png,scaled,0,zi,kitchen,k5_zi.png,m,1,1669,67184,135062,35,Man
537075,OSSe3,v1,1920,969,1920,1080,5-9-2023,23-49-45,1,2,large,kitchen,pot.png,scaled,0,zo,laundromat,l2_zo.png,m,1,1661,67184,135062,35,Man
537075,OSSe3,v1,1920,969,1920,1080,5-9-2023,23-49-45,1,3,large,kitchen,kettle.png,scaled,1,zo,kitchen,k0_zo.png,c,1,1727,67184,135062,35,Man
537075,OSSe3,v1,1920,969,1920,1080,5-9-2023,23-49-45,1,4,large,classroom,clipboard.png,scaled,0,zo,laundromat,l4_zo.png,m,1,1910,67184,135062,35,Man
537075,OSSe3,v1,1920,969,1920,1080,5-9-2023,23-49-45,1,5,large,kitchen,toaster.png,misscaled,0,zi,bathroom,b4_zi.png,c,0,1808,67184,135062,35,Man
537075,OSSe3,v1,1920,969,1920,1080,5-9-2023,23-49-45,1,6,small,classroom,eraser.png,misscaled,0,zo,bathroom,b0_zo.png,c,0,1861,67184,135062,35,Man
537075,OSSe3,v1,1920,969,1920,1080,5-9-2023,23-49-45,1,7,small,bathroom,lipstick.png,scaled,0,zi,laundromat,l2_zi.png,m,1,1943,67184,135062,35,Man
537075,OSSe3,v1,1920,969,1920,1080,5-9-2023,23-49-45,1,8,small,kitchen,saltshaker.png,misscaled,0,zo,laundromat,l5_zo.png,m,1,2093,67184,135062,35,Man
537075,OSSe3,v1,1920,969,1920,1080,5-9-2023,23-49-45,1,9,large,classroom,notebook.png,misscaled,0,zi,kitchen,k0_zi.png,m,1,1766,67184,135062,35,Man
537075,OSSe3,v1,1920,969,1920,1080,5-9-2023,23-49-45,1,10,small,bathroom,floss.png,scaled,1,zi,bathroom,b5_zi.png,c,1,2471,67184,135062,35,Man
537075,OSSe3,v1,1920,969,1920,1080,5-9-2023,23-49-45,1,11,large,classroom,computer.png,misscaled,1,zi,classroom,c0_zi.png,c,1,2014,67184,135062,35,Man
537075,OSSe3,v1,1920,969,1920,1080,5-9-2023,23-49-45,1,12,small,laundromat,socks.png,misscaled,1,zo,laundromat,l0_zo.png,c,1,1659,67184,135062,35,Man
537075,OSSe3,v1,1920,969,1920,1080,5-9-2023,23-49-45,1,13,small,kitchen,spoon.png,scaled,1,zi,kitchen,k3_zi.png,c,1,1462,67184,135062,35,Man
537075,OSSe3,v1,1920,969,1920,1080,5-9-2023,23-49-45,1,14,large,laundromat,shorts.png,misscaled,1,zi,laundromat,l3_zi.png,c,1,1501,67184,135062,35,Man
537075,OSSe3,v1,1920,969,1920,1080,5-9-2023,23-49-45,1,15,small,bathroom,nailclipper.png,misscaled,1,zo,bathroom,b2_zo.png,m,0,1669,67184,135062,35,Man
123630,OSSe3,v1,1536,750,1920,1080,5-10-2023,10-58-9,1,0,small,kitchen,saltshaker.png,misscaled,1,zo,kitchen,k1_zo.png,c,1,1015,59814,123962,36,Man
123630,OSSe3,v1,1536,750,1920,1080,5-10-2023,10-58-9,1,1,small,laundromat,coins.png,scaled,1,zi,laundromat,l0_zi.png,m,0,892,59814,123962,36,Man
123630,OSSe3,v1,1536,750,1920,1080,5-10-2023,10-58-9,1,2,large,bathroom,hairdryer.png,scaled,0,zo,classroom,c5_zo.png,m,1,1333,59814,123962,36,Man
123630,OSSe3,v1,1536,750,1920,1080,5-10-2023,10-58-9,1,3,large,classroom,clipboard.png,scaled,1,zo,classroom,c3_zo.png,c,1,818,59814,123962,36,Man
123630,OSSe3,v1,1536,750,1920,1080,5-10-2023,10-58-9,1,4,small,bathroom,lipstick.png,scaled,1,zi,bathroom,b5_zi.png,m,0,835,59814,123962,36,Man
123630,OSSe3,v1,1536,750,1920,1080,5-10-2023,10-58-9,1,5,small,kitchen,spoon.png,misscaled,1,zo,kitchen,k0_zo.png,c,1,837,59814,123962,36,Man
123630,OSSe3,v1,1536,750,1920,1080,5-10-2023,10-58-9,1,6,small,kitchen,sponge.png,scaled,0,zi,laundromat,l4_zi.png,c,0,1050,59814,123962,36,Man
123630,OSSe3,v1,1536,750,1920,1080,5-10-2023,10-58-9,1,7,small,bathroom,floss.png,misscaled,0,zo,kitchen,k4_zo.png,m,1,1179,59814,123962,36,Man
123630,OSSe3,v1,1536,750,1920,1080,5-10-2023,10-58-9,1,8,small,classroom,eraser.png,misscaled,0,zo,bathroom,b2_zo.png,c,0,939,59814,123962,36,Man
123630,OSSe3,v1,1536,750,1920,1080,5-10-2023,10-58-9,1,9,large,bathroom,tissuebox.png,misscaled,1,zi,bathroom,b4_zi.png,c,1,1100,59814,123962,36,Man
123630,OSSe3,v1,1536,750,1920,1080,5-10-2023,10-58-9,1,10,large,bathroom,loofah.png,misscaled,0,zi,laundromat,l2_zi.png,m,1,930,59814,123962,36,Man
123630,OSSe3,v1,1536,750,1920,1080,5-10-2023,10-58-9,1,11,large,classroom,computer.png,misscaled,1,zi,classroom,c5_zi.png,c,1,985,59814,123962,36,Man
123630,OSSe3,v1,1536,750,1920,1080,5-10-2023,10-58-9,1,12,large,kitchen,toaster.png,scaled,0,zo,bathroom,b5_zo.png,m,1,856,59814,123962,36,Man
123630,OSSe3,v1,1536,750,1920,1080,5-10-2023,10-58-9,1,13,large,classroom,notebook.png,misscaled,0,zi,kitchen,k0_zi.png,m,1,867,59814,123962,36,Man
123630,OSSe3,v1,1536,750,1920,1080,5-10-2023,10-58-9,1,14,small,classroom,binderclip.png,scaled,0,zi,kitchen,k3_zi.png,m,1,1235,59814,123962,36,Man
123630,OSSe3,v1,1536,750,1920,1080,5-10-2023,10-58-9,1,15,large,laundromat,shorts.png,scaled,1,zo,laundromat,l4_zo.png,c,1,807,59814,123962,36,Man
349250,OSSe3,v1,1440,789,1440,900,5-9-2023,12-6-24,3,0,small,laundromat,socks.png,misscaled,0,zo,kitchen,k1_zo.png,m,1,2310,69376,310284,30,Man
349250,OSSe3,v1,1440,789,1440,900,5-9-2023,12-6-24,3,1,large,kitchen,toaster.png,scaled,1,zo,kitchen,k4_zo.png,c,1,1790,69376,310284,30,Man
349250,OSSe3,v1,1440,789,1440,900,5-9-2023,12-6-24,3,2,small,laundromat,tidepod.png,scaled,0,zi,classroom,c0_zi.png,m,1,2645,69376,310284,30,Man
349250,OSSe3,v1,1440,789,1440,900,5-9-2023,12-6-24,3,3,large,bathroom,tissuebox.png,misscaled,0,zi,laundromat,l4_zi.png,m,1,4838,69376,310284,30,Man
349250,OSSe3,v1,1440,789,1440,900,5-9-2023,12-6-24,3,4,large,kitchen,pot.png,scaled,0,zo,bathroom,b5_zo.png,m,1,1692,69376,310284,30,Man
349250,OSSe3,v1,1440,789,1440,900,5-9-2023,12-6-24,3,5,small,kitchen,spoon.png,misscaled,1,zo,kitchen,k2_zo.png,c,1,1928,69376,310284,30,Man
349250,OSSe3,v1,1440,789,1440,900,5-9-2023,12-6-24,3,6,large,classroom,clipboard.png,misscaled,1,zi,classroom,c5_zi.png,c,1,2102,69376,310284,30,Man
349250,OSSe3,v1,1440,789,1440,900,5-9-2023,12-6-24,3,7,large,classroom,notebook.png,misscaled,1,zi,classroom,c2_zi.png,c,1,1574,69376,310284,30,Man
349250,OSSe3,v1,1440,789,1440,900,5-9-2023,12-6-24,3,8,small,laundromat,coins.png,scaled,1,zi,laundromat,l1_zi.png,m,0,2728,69376,310284,30,Man
349250,OSSe3,v1,1440,789,1440,900,5-9-2023,12-6-24,3,9,small,classroom,binderclip.png,misscaled,0,zo,laundromat,l2_zo.png,m,1,2142,69376,310284,30,Man
349250,OSSe3,v1,1440,789,1440,900,5-9-2023,12-6-24,3,10,large,laundromat,shirt.png,scaled,0,zo,bathroom,b2_zo.png,m,1,1693,69376,310284,30,Man
349250,OSSe3,v1,1440,789,1440,900,5-9-2023,12-6-24,3,11,small,classroom,paperclip.png,scaled,1,zi,classroom,c1_zi.png,c,1,1934,69376,310284,30,Man
349250,OSSe3,v1,1440,789,1440,900,5-9-2023,12-6-24,3,12,small,bathroom,nailclipper.png,scaled,0,zi,laundromat,l3_zi.png,m,1,1622,69376,310284,30,Man
349250,OSSe3,v1,1440,789,1440,900,5-9-2023,12-6-24,3,13,large,classroom,computer.png,scaled,1,zo,classroom,c2_zo.png,c,1,1951,69376,310284,30,Man
349250,OSSe3,v1,1440,789,1440,900,5-9-2023,12-6-24,3,14,large,bathroom,loofah.png,misscaled,0,zi,classroom,c4_zi.png,m,1,1696,69376,310284,30,Man
349250,OSSe3,v1,1440,789,1440,900,5-9-2023,12-6-24,3,15,small,bathroom,floss.png,misscaled,1,zo,bathroom,b3_zo.png,m,0,1701,69376,310284,30,Man
209196,OSSe3,v1,1887,763,1920,1080,5-9-2023,13-16-36,1,0,large,kitchen,pot.png,scaled,0,zo,laundromat,l1_zo.png,m,1,728,47091,102680,34,Woman
209196,OSSe3,v1,1887,763,1920,1080,5-9-2023,13-16-36,1,1,large,bathroom,tissuebox.png,scaled,1,zo,bathroom,b3_zo.png,c,1,907,47091,102680,34,Woman
209196,OSSe3,v1,1887,763,1920,1080,5-9-2023,13-16-36,1,2,small,bathroom,nailclipper.png,scaled,0,zi,laundromat,l4_zi.png,m,1,775,47091,102680,34,Woman
209196,OSSe3,v1,1887,763,1920,1080,5-9-2023,13-16-36,1,3,large,kitchen,toaster.png,misscaled,0,zi,bathroom,b5_zi.png,m,1,726,47091,102680,34,Woman
209196,OSSe3,v1,1887,763,1920,1080,5-9-2023,13-16-36,1,4,large,bathroom,hairdryer.png,misscaled,1,zi,bathroom,b3_zi.png,c,1,677,47091,102680,34,Woman
209196,OSSe3,v1,1887,763,1920,1080,5-9-2023,13-16-36,1,5,small,bathroom,floss.png,scaled,1,zi,bathroom,b0_zi.png,c,1,678,47091,102680,34,Woman
209196,OSSe3,v1,1887,763,1920,1080,5-9-2023,13-16-36,1,6,small,laundromat,tidepod.png,scaled,0,zi,classroom,c1_zi.png,m,1,716,47091,102680,34,Woman
209196,OSSe3,v1,1887,763,1920,1080,5-9-2023,13-16-36,1,7,large,classroom,notebook.png,scaled,1,zo,classroom,c3_zo.png,c,1,679,47091,102680,34,Woman
209196,OSSe3,v1,1887,763,1920,1080,5-9-2023,13-16-36,1,8,large,laundromat,shorts.png,misscaled,0,zi,bathroom,b1_zi.png,c,0,1013,47091,102680,34,Woman
209196,OSSe3,v1,1887,763,1920,1080,5-9-2023,13-16-36,1,9,large,kitchen,kettle.png,scaled,0,zo,laundromat,l5_zo.png,m,1,893,47091,102680,34,Woman
209196,OSSe3,v1,1887,763,1920,1080,5-9-2023,13-16-36,1,10,small,laundromat,coins.png,misscaled,1,zo,laundromat,l2_zo.png,c,1,733,47091,102680,34,Woman
209196,OSSe3,v1,1887,763,1920,1080,5-9-2023,13-16-36,1,11,small,classroom,paperclip.png,misscaled,0,zo,bathroom,b0_zo.png,m,1,718,47091,102680,34,Woman
209196,OSSe3,v1,1887,763,1920,1080,5-9-2023,13-16-36,1,12,small,classroom,binderclip.png,misscaled,0,zo,kitchen,k4_zo.png,m,1,702,47091,102680,34,Woman
209196,OSSe3,v1,1887,763,1920,1080,5-9-2023,13-16-36,1,13,large,laundromat,shirt.png,misscaled,1,zi,laundromat,l3_zi.png,c,1,662,47091,102680,34,Woman
209196,OSSe3,v1,1887,763,1920,1080,5-9-2023,13-16-36,1,14,small,classroom,eraser.png,misscaled,1,zo,classroom,c1_zo.png,c,1,767,47091,102680,34,Woman
209196,OSSe3,v1,1887,763,1920,1080,5-9-2023,13-16-36,1,15,small,laundromat,socks.png,scaled,1,zi,laundromat,l2_zi.png,m,0,678,47091,102680,34,Woman
410560,OSSe3,v1,1803,977,1920,1080,5-9-2023,13-12-22,1,0,small,kitchen,sponge.png,scaled,0,zi,laundromat,l1_zi.png,c,0,1599,65923,381818,41,Man
410560,OSSe3,v1,1803,977,1920,1080,5-9-2023,13-12-22,1,1,large,bathroom,hairdryer.png,scaled,0,zo,kitchen,k2_zo.png,c,0,1201,65923,381818,41,Man
410560,OSSe3,v1,1803,977,1920,1080,5-9-2023,13-12-22,1,2,small,bathroom,nailclipper.png,scaled,0,zi,kitchen,k1_zi.png,m,1,1610,65923,381818,41,Man
410560,OSSe3,v1,1803,977,1920,1080,5-9-2023,13-12-22,1,3,large,kitchen,pot.png,misscaled,1,zi,kitchen,k4_zi.png,c,1,1158,65923,381818,41,Man
410560,OSSe3,v1,1803,977,1920,1080,5-9-2023,13-12-22,1,4,small,bathroom,lipstick.png,scaled,1,zi,bathroom,b1_zi.png,c,1,1708,65923,381818,41,Man
410560,OSSe3,v1,1803,977,1920,1080,5-9-2023,13-12-22,1,5,small,classroom,binderclip.png,misscaled,1,zo,classroom,c1_zo.png,c,1,1682,65923,381818,41,Man
410560,OSSe3,v1,1803,977,1920,1080,5-9-2023,13-12-22,1,6,small,laundromat,coins.png,misscaled,0,zo,classroom,c4_zo.png,m,1,1481,65923,381818,41,Man
410560,OSSe3,v1,1803,977,1920,1080,5-9-2023,13-12-22,1,7,large,laundromat,shorts.png,scaled,1,zo,laundromat,l5_zo.png,c,1,2190,65923,381818,41,Man
410560,OSSe3,v1,1803,977,1920,1080,5-9-2023,13-12-22,1,8,small,classroom,paperclip.png,misscaled,1,zo,classroom,c2_zo.png,c,1,1626,65923,381818,41,Man
410560,OSSe3,v1,1803,977,1920,1080,5-9-2023,13-12-22,1,9,large,classroom,computer.png,scaled,0,zo,laundromat,l1_zo.png,m,1,1368,65923,381818,41,Man
410560,OSSe3,v1,1803,977,1920,1080,5-9-2023,13-12-22,1,10,small,kitchen,saltshaker.png,misscaled,0,zo,classroom,c0_zo.png,m,1,1705,65923,381818,41,Man
410560,OSSe3,v1,1803,977,1920,1080,5-9-2023,13-12-22,1,11,large,kitchen,toaster.png,scaled,1,zo,kitchen,k0_zo.png,c,1,1284,65923,381818,41,Man
410560,OSSe3,v1,1803,977,1920,1080,5-9-2023,13-12-22,1,12,large,laundromat,detergent.png,misscaled,1,zi,laundromat,l2_zi.png,c,1,1897,65923,381818,41,Man
410560,OSSe3,v1,1803,977,1920,1080,5-9-2023,13-12-22,1,13,large,kitchen,kettle.png,misscaled,0,zi,bathroom,b5_zi.png,m,1,1055,65923,381818,41,Man
410560,OSSe3,v1,1803,977,1920,1080,5-9-2023,13-12-22,1,14,large,bathroom,tissuebox.png,misscaled,0,zi,classroom,c4_zi.png,c,0,1680,65923,381818,41,Man
410560,OSSe3,v1,1803,977,1920,1080,5-9-2023,13-12-22,1,15,small,kitchen,spoon.png,scaled,1,zi,kitchen,k2_zi.png,c,1,1533,65923,381818,41,Man
449368,OSSe3,v1,1440,789,1440,900,5-9-2023,3-32-5,1,0,small,laundromat,socks.png,scaled,0,zi,bathroom,b1_zi.png,m,1,1435,57046,149699,35,Woman
449368,OSSe3,v1,1440,789,1440,900,5-9-2023,3-32-5,1,1,small,classroom,binderclip.png,scaled,1,zi,classroom,c3_zi.png,c,1,1192,57046,149699,35,Woman
449368,OSSe3,v1,1440,789,1440,900,5-9-2023,3-32-5,1,2,large,kitchen,pot.png,scaled,1,zo,kitchen,k5_zo.png,c,1,1198,57046,149699,35,Woman
449368,OSSe3,v1,1440,789,1440,900,5-9-2023,3-32-5,1,3,small,classroom,paperclip.png,misscaled,1,zo,classroom,c4_zo.png,c,1,1130,57046,149699,35,Woman
449368,OSSe3,v1,1440,789,1440,900,5-9-2023,3-32-5,1,4,small,kitchen,sponge.png,misscaled,0,zo,laundromat,l4_zo.png,c,0,1239,57046,149699,35,Woman
449368,OSSe3,v1,1440,789,1440,900,5-9-2023,3-32-5,1,5,large,laundromat,shorts.png,scaled,1,zo,laundromat,l0_zo.png,c,1,1319,57046,149699,35,Woman
449368,OSSe3,v1,1440,789,1440,900,5-9-2023,3-32-5,1,6,large,classroom,computer.png,misscaled,1,zi,classroom,c5_zi.png,c,1,1168,57046,149699,35,Woman
449368,OSSe3,v1,1440,789,1440,900,5-9-2023,3-32-5,1,7,small,bathroom,nailclipper.png,misscaled,0,zo,laundromat,l5_zo.png,m,1,1133,57046,149699,35,Woman
449368,OSSe3,v1,1440,789,1440,900,5-9-2023,3-32-5,1,8,small,laundromat,tidepod.png,misscaled,1,zo,laundromat,l3_zo.png,c,1,1200,57046,149699,35,Woman
449368,OSSe3,v1,1440,789,1440,900,5-9-2023,3-32-5,1,9,large,bathroom,tissuebox.png,scaled,0,zo,classroom,c2_zo.png,m,1,1286,57046,149699,35,Woman
449368,OSSe3,v1,1440,789,1440,900,5-9-2023,3-32-5,1,10,large,kitchen,toaster.png,misscaled,1,zi,kitchen,k3_zi.png,m,0,1182,57046,149699,35,Woman
449368,OSSe3,v1,1440,789,1440,900,5-9-2023,3-32-5,1,11,large,classroom,clipboard.png,misscaled,0,zi,laundromat,l0_zi.png,m,1,999,57046,149699,35,Woman
449368,OSSe3,v1,1440,789,1440,900,5-9-2023,3-32-5,1,12,small,laundromat,coins.png,scaled,0,zi,kitchen,k4_zi.png,m,1,1021,57046,149699,35,Woman
449368,OSSe3,v1,1440,789,1440,900,5-9-2023,3-32-5,1,13,small,classroom,eraser.png,scaled,1,zi,classroom,c0_zi.png,c,1,1086,57046,149699,35,Woman
449368,OSSe3,v1,1440,789,1440,900,5-9-2023,3-32-5,1,14,large,kitchen,kettle.png,misscaled,0,zi,bathroom,b2_zi.png,m,1,1214,57046,149699,35,Woman
449368,OSSe3,v1,1440,789,1440,900,5-9-2023,3-32-5,1,15,large,bathroom,hairdryer.png,scaled,0,zo,kitchen,k3_zo.png,m,1,1199,57046,149699,35,Woman
266036,OSSe3,v1,1920,955,1920,1080,5-9-2023,15-11-13,1,0,small,kitchen,saltshaker.png,misscaled,1,zo,kitchen,k3_zo.png,c,1,1288,50849,160767,34,Man
266036,OSSe3,v1,1920,955,1920,1080,5-9-2023,15-11-13,1,1,large,kitchen,kettle.png,misscaled,1,zi,kitchen,k4_zi.png,c,1,870,50849,160767,34,Man
266036,OSSe3,v1,1920,955,1920,1080,5-9-2023,15-11-13,1,2,small,kitchen,spoon.png,misscaled,0,zo,bathroom,b4_zo.png,m,1,1082,50849,160767,34,Man
266036,OSSe3,v1,1920,955,1920,1080,5-9-2023,15-11-13,1,3,large,classroom,clipboard.png,misscaled,0,zi,bathroom,b3_zi.png,m,1,1070,50849,160767,34,Man
266036,OSSe3,v1,1920,955,1920,1080,5-9-2023,15-11-13,1,4,large,laundromat,detergent.png,misscaled,0,zi,classroom,c1_zi.png,m,1,1006,50849,160767,34,Man
266036,OSSe3,v1,1920,955,1920,1080,5-9-2023,15-11-13,1,5,small,kitchen,sponge.png,misscaled,1,zo,kitchen,k0_zo.png,c,1,1059,50849,160767,34,Man
266036,OSSe3,v1,1920,955,1920,1080,5-9-2023,15-11-13,1,6,large,laundromat,shorts.png,scaled,1,zo,laundromat,l0_zo.png,c,1,1126,50849,160767,34,Man
266036,OSSe3,v1,1920,955,1920,1080,5-9-2023,15-11-13,1,7,large,laundromat,shirt.png,misscaled,1,zi,laundromat,l4_zi.png,c,1,911,50849,160767,34,Man
266036,OSSe3,v1,1920,955,1920,1080,5-9-2023,15-11-13,1,8,small,laundromat,tidepod.png,misscaled,0,zo,kitchen,k4_zo.png,m,1,1795,50849,160767,34,Man
266036,OSSe3,v1,1920,955,1920,1080,5-9-2023,15-11-13,1,9,large,kitchen,toaster.png,scaled,0,zo,bathroom,b3_zo.png,m,1,1050,50849,160767,34,Man
266036,OSSe3,v1,1920,955,1920,1080,5-9-2023,15-11-13,1,10,large,classroom,computer.png,scaled,0,zo,bathroom,b2_zo.png,m,1,924,50849,160767,34,Man
266036,OSSe3,v1,1920,955,1920,1080,5-9-2023,15-11-13,1,11,small,classroom,paperclip.png,scaled,1,zi,classroom,c5_zi.png,c,1,1326,50849,160767,34,Man
266036,OSSe3,v1,1920,955,1920,1080,5-9-2023,15-11-13,1,12,small,laundromat,coins.png,scaled,0,zi,classroom,c4_zi.png,m,1,1312,50849,160767,34,Man
266036,OSSe3,v1,1920,955,1920,1080,5-9-2023,15-11-13,1,13,small,laundromat,socks.png,scaled,0,zi,classroom,c3_zi.png,m,1,1533,50849,160767,34,Man
266036,OSSe3,v1,1920,955,1920,1080,5-9-2023,15-11-13,1,14,large,classroom,notebook.png,scaled,1,zo,classroom,c0_zo.png,c,1,1652,50849,160767,34,Man
266036,OSSe3,v1,1920,955,1920,1080,5-9-2023,15-11-13,1,15,small,classroom,eraser.png,scaled,1,zi,classroom,c2_zi.png,c,1,724,50849,160767,34,Man
744683,OSSe3,v1,1366,625,1366,768,5-9-2023,13-35-5,1,0,small,kitchen,saltshaker.png,misscaled,1,zo,kitchen,k3_zo.png,c,1,1084,54749,654690,56,Man
744683,OSSe3,v1,1366,625,1366,768,5-9-2023,13-35-5,1,1,large,classroom,clipboard.png,misscaled,1,zi,classroom,c5_zi.png,c,1,1357,54749,654690,56,Man
744683,OSSe3,v1,1366,625,1366,768,5-9-2023,13-35-5,1,2,small,kitchen,sponge.png,misscaled,1,zo,kitchen,k4_zo.png,c,1,1011,54749,654690,56,Man
744683,OSSe3,v1,1366,625,1366,768,5-9-2023,13-35-5,1,3,large,bathroom,hairdryer.png,misscaled,0,zi,laundromat,l5_zi.png,m,1,1519,54749,654690,56,Man
744683,OSSe3,v1,1366,625,1366,768,5-9-2023,13-35-5,1,4,large,laundromat,detergent.png,scaled,0,zo,bathroom,b4_zo.png,m,1,1520,54749,654690,56,Man
744683,OSSe3,v1,1366,625,1366,768,5-9-2023,13-35-5,1,5,large,bathroom,tissuebox.png,scaled,1,zo,bathroom,b2_zo.png,c,1,1244,54749,654690,56,Man
744683,OSSe3,v1,1366,625,1366,768,5-9-2023,13-35-5,1,6,small,classroom,binderclip.png,scaled,0,zi,laundromat,l4_zi.png,m,1,1087,54749,654690,56,Man
744683,OSSe3,v1,1366,625,1366,768,5-9-2023,13-35-5,1,7,large,bathroom,loofah.png,misscaled,1,zi,bathroom,b4_zi.png,c,1,1477,54749,654690,56,Man
744683,OSSe3,v1,1366,625,1366,768,5-9-2023,13-35-5,1,8,small,laundromat,tidepod.png,misscaled,0,zo,classroom,c2_zo.png,m,1,1038,54749,654690,56,Man
744683,OSSe3,v1,1366,625,1366,768,5-9-2023,13-35-5,1,9,small,bathroom,lipstick.png,misscaled,0,zo,classroom,c4_zo.png,m,1,1178,54749,654690,56,Man
744683,OSSe3,v1,1366,625,1366,768,5-9-2023,13-35-5,1,10,small,kitchen,spoon.png,scaled,0,zi,classroom,c0_zi.png,m,1,1095,54749,654690,56,Man
744683,OSSe3,v1,1366,625,1366,768,5-9-2023,13-35-5,1,11,large,classroom,notebook.png,misscaled,0,zi,bathroom,b3_zi.png,m,1,1349,54749,654690,56,Man
744683,OSSe3,v1,1366,625,1366,768,5-9-2023,13-35-5,1,12,large,laundromat,shorts.png,scaled,1,zo,laundromat,l3_zo.png,c,1,1308,54749,654690,56,Man
744683,OSSe3,v1,1366,625,1366,768,5-9-2023,13-35-5,1,13,large,laundromat,shirt.png,scaled,0,zo,classroom,c1_zo.png,c,0,1125,54749,654690,56,Man
744683,OSSe3,v1,1366,625,1366,768,5-9-2023,13-35-5,1,14,small,bathroom,nailclipper.png,scaled,1,zi,bathroom,b0_zi.png,c,1,1099,54749,654690,56,Man
744683,OSSe3,v1,1366,625,1366,768,5-9-2023,13-35-5,1,15,small,classroom,paperclip.png,scaled,1,zi,classroom,c4_zi.png,c,1,1126,54749,654690,56,Man
964285,OSSe3,v1,1366,625,1366,768,5-10-2023,12-17-7,3,0,small,kitchen,spoon.png,scaled,0,zi,bathroom,b0_zi.png,m,1,1940,69593,277878,53,Woman
964285,OSSe3,v1,1366,625,1366,768,5-10-2023,12-17-7,3,1,large,classroom,computer.png,scaled,1,zo,classroom,c3_zo.png,c,1,1982,69593,277878,53,Woman
964285,OSSe3,v1,1366,625,1366,768,5-10-2023,12-17-7,3,2,small,bathroom,nailclipper.png,misscaled,0,zo,classroom,c4_zo.png,m,1,2195,69593,277878,53,Woman
964285,OSSe3,v1,1366,625,1366,768,5-10-2023,12-17-7,3,3,large,classroom,clipboard.png,scaled,0,zo,bathroom,b1_zo.png,m,1,2222,69593,277878,53,Woman
964285,OSSe3,v1,1366,625,1366,768,5-10-2023,12-17-7,3,4,large,kitchen,kettle.png,scaled,1,zo,kitchen,k0_zo.png,c,1,2222,69593,277878,53,Woman
964285,OSSe3,v1,1366,625,1366,768,5-10-2023,12-17-7,3,5,large,classroom,notebook.png,misscaled,0,zi,bathroom,b4_zi.png,c,0,1765,69593,277878,53,Woman
964285,OSSe3,v1,1366,625,1366,768,5-10-2023,12-17-7,3,6,small,classroom,eraser.png,misscaled,0,zo,bathroom,b4_zo.png,c,0,1820,69593,277878,53,Woman
964285,OSSe3,v1,1366,625,1366,768,5-10-2023,12-17-7,3,7,small,bathroom,lipstick.png,scaled,1,zi,bathroom,b3_zi.png,m,0,1514,69593,277878,53,Woman
964285,OSSe3,v1,1366,625,1366,768,5-10-2023,12-17-7,3,8,large,bathroom,hairdryer.png,misscaled,1,zi,bathroom,b2_zi.png,c,1,2022,69593,277878,53,Woman
964285,OSSe3,v1,1366,625,1366,768,5-10-2023,12-17-7,3,9,large,bathroom,tissuebox.png,misscaled,1,zi,bathroom,b1_zi.png,c,1,1320,69593,277878,53,Woman
964285,OSSe3,v1,1366,625,1366,768,5-10-2023,12-17-7,3,10,small,kitchen,saltshaker.png,scaled,0,zi,classroom,c3_zi.png,m,1,1310,69593,277878,53,Woman
964285,OSSe3,v1,1366,625,1366,768,5-10-2023,12-17-7,3,11,small,kitchen,sponge.png,scaled,1,zi,kitchen,k0_zi.png,c,1,1889,69593,277878,53,Woman
964285,OSSe3,v1,1366,625,1366,768,5-10-2023,12-17-7,3,12,small,classroom,binderclip.png,misscaled,1,zo,classroom,c2_zo.png,c,1,1564,69593,277878,53,Woman
964285,OSSe3,v1,1366,625,1366,768,5-10-2023,12-17-7,3,13,large,laundromat,shirt.png,misscaled,0,zi,kitchen,k4_zi.png,m,1,1440,69593,277878,53,Woman
964285,OSSe3,v1,1366,625,1366,768,5-10-2023,12-17-7,3,14,small,laundromat,tidepod.png,misscaled,1,zo,laundromat,l1_zo.png,c,1,1665,69593,277878,53,Woman
964285,OSSe3,v1,1366,625,1366,768,5-10-2023,12-17-7,3,15,large,bathroom,loofah.png,scaled,0,zo,laundromat,l2_zo.png,c,0,1514,69593,277878,53,Woman
374869,OSSe3,v1,1440,789,1440,900,5-9-2023,0-29-18,2,0,small,bathroom,nailclipper.png,scaled,1,zi,bathroom,b2_zi.png,m,0,1598,65101,162253,35,Man
374869,OSSe3,v1,1440,789,1440,900,5-9-2023,0-29-18,2,1,large,kitchen,kettle.png,misscaled,1,zi,kitchen,k3_zi.png,c,1,1214,65101,162253,35,Man
374869,OSSe3,v1,1440,789,1440,900,5-9-2023,0-29-18,2,2,large,bathroom,tissuebox.png,scaled,0,zo,kitchen,k0_zo.png,c,0,1246,65101,162253,35,Man
374869,OSSe3,v1,1440,789,1440,900,5-9-2023,0-29-18,2,3,small,classroom,paperclip.png,misscaled,1,zo,classroom,c2_zo.png,c,1,1488,65101,162253,35,Man
374869,OSSe3,v1,1440,789,1440,900,5-9-2023,0-29-18,2,4,large,bathroom,loofah.png,misscaled,1,zi,bathroom,b0_zi.png,c,1,1450,65101,162253,35,Man
374869,OSSe3,v1,1440,789,1440,900,5-9-2023,0-29-18,2,5,large,kitchen,pot.png,scaled,1,zo,kitchen,k5_zo.png,c,1,1179,65101,162253,35,Man
374869,OSSe3,v1,1440,789,1440,900,5-9-2023,0-29-18,2,6,small,classroom,eraser.png,misscaled,1,zo,classroom,c5_zo.png,c,1,1310,65101,162253,35,Man
374869,OSSe3,v1,1440,789,1440,900,5-9-2023,0-29-18,2,7,small,classroom,binderclip.png,misscaled,0,zo,bathroom,b0_zo.png,m,1,1791,65101,162253,35,Man
374869,OSSe3,v1,1440,789,1440,900,5-9-2023,0-29-18,2,8,small,kitchen,sponge.png,scaled,1,zi,kitchen,k4_zi.png,c,1,1238,65101,162253,35,Man
374869,OSSe3,v1,1440,789,1440,900,5-9-2023,0-29-18,2,9,large,classroom,clipboard.png,misscaled,0,zi,kitchen,k5_zi.png,m,1,1448,65101,162253,35,Man
374869,OSSe3,v1,1440,789,1440,900,5-9-2023,0-29-18,2,10,large,classroom,computer.png,misscaled,0,zi,kitchen,k2_zi.png,m,1,1366,65101,162253,35,Man
374869,OSSe3,v1,1440,789,1440,900,5-9-2023,0-29-18,2,11,small,kitchen,spoon.png,scaled,0,zi,bathroom,b5_zi.png,c,0,1702,65101,162253,35,Man
374869,OSSe3,v1,1440,789,1440,900,5-9-2023,0-29-18,2,12,small,bathroom,lipstick.png,misscaled,0,zo,laundromat,l0_zo.png,m,1,2653,65101,162253,35,Man
374869,OSSe3,v1,1440,789,1440,900,5-9-2023,0-29-18,2,13,large,classroom,notebook.png,scaled,0,zo,bathroom,b1_zo.png,m,1,1463,65101,162253,35,Man
374869,OSSe3,v1,1440,789,1440,900,5-9-2023,0-29-18,2,14,large,kitchen,toaster.png,scaled,1,zo,kitchen,k1_zo.png,c,1,1437,65101,162253,35,Man
374869,OSSe3,v1,1440,789,1440,900,5-9-2023,0-29-18,2,15,small,kitchen,saltshaker.png,scaled,0,zi,bathroom,b1_zi.png,m,1,1495,65101,162253,35,Man
869621,OSSe3,v1,1440,757,1440,900,5-9-2023,14-23-11,3,0,large,classroom,clipboard.png,scaled,1,zo,classroom,c4_zo.png,c,1,1367,58089,204135,35,Man
869621,OSSe3,v1,1440,757,1440,900,5-9-2023,14-23-11,3,1,small,classroom,eraser.png,scaled,0,zi,kitchen,k0_zi.png,m,1,1520,58089,204135,35,Man
869621,OSSe3,v1,1440,757,1440,900,5-9-2023,14-23-11,3,2,small,kitchen,sponge.png,misscaled,1,zo,kitchen,k4_zo.png,c,1,1330,58089,204135,35,Man
869621,OSSe3,v1,1440,757,1440,900,5-9-2023,14-23-11,3,3,small,classroom,binderclip.png,scaled,1,zi,classroom,c1_zi.png,c,1,1501,58089,204135,35,Man
869621,OSSe3,v1,1440,757,1440,900,5-9-2023,14-23-11,3,4,small,classroom,paperclip.png,misscaled,0,zo,kitchen,k0_zo.png,m,1,1630,58089,204135,35,Man
869621,OSSe3,v1,1440,757,1440,900,5-9-2023,14-23-11,3,5,small,bathroom,floss.png,misscaled,0,zo,laundromat,l5_zo.png,m,1,1785,58089,204135,35,Man
869621,OSSe3,v1,1440,757,1440,900,5-9-2023,14-23-11,3,6,large,kitchen,pot.png,misscaled,1,zi,kitchen,k2_zi.png,c,1,1451,58089,204135,35,Man
869621,OSSe3,v1,1440,757,1440,900,5-9-2023,14-23-11,3,7,large,kitchen,toaster.png,misscaled,0,zi,laundromat,l3_zi.png,m,1,2038,58089,204135,35,Man
869621,OSSe3,v1,1440,757,1440,900,5-9-2023,14-23-11,3,8,large,classroom,computer.png,scaled,0,zo,kitchen,k1_zo.png,m,1,1510,58089,204135,35,Man
869621,OSSe3,v1,1440,757,1440,900,5-9-2023,14-23-11,3,9,large,bathroom,tissuebox.png,misscaled,1,zi,bathroom,b3_zi.png,c,1,1812,58089,204135,35,Man
869621,OSSe3,v1,1440,757,1440,900,5-9-2023,14-23-11,3,10,large,bathroom,loofah.png,misscaled,0,zi,classroom,c3_zi.png,m,1,1850,58089,204135,35,Man
869621,OSSe3,v1,1440,757,1440,900,5-9-2023,14-23-11,3,11,small,bathroom,nailclipper.png,scaled,1,zi,bathroom,b1_zi.png,c,1,1614,58089,204135,35,Man
869621,OSSe3,v1,1440,757,1440,900,5-9-2023,14-23-11,3,12,large,bathroom,hairdryer.png,scaled,0,zo,classroom,c5_zo.png,m,1,1525,58089,204135,35,Man
869621,OSSe3,v1,1440,757,1440,900,5-9-2023,14-23-11,3,13,small,laundromat,socks.png,scaled,0,zi,kitchen,k5_zi.png,m,1,2037,58089,204135,35,Man
869621,OSSe3,v1,1440,757,1440,900,5-9-2023,14-23-11,3,14,large,classroom,notebook.png,scaled,1,zo,classroom,c2_zo.png,c,1,1744,58089,204135,35,Man
869621,OSSe3,v1,1440,757,1440,900,5-9-2023,14-23-11,3,15,small,laundromat,coins.png,misscaled,1,zo,laundromat,l3_zo.png,m,0,1342,58089,204135,35,Man
761446,OSSe3,v1,3127,1693,3478,1957,5-9-2023,14-9-14,1,0,small,kitchen,sponge.png,scaled,1,zi,kitchen,k1_zi.png,c,1,880,57608,116439,31,Woman
761446,OSSe3,v1,3127,1693,3478,1957,5-9-2023,14-9-14,1,1,small,kitchen,saltshaker.png,misscaled,1,zo,kitchen,k2_zo.png,c,1,759,57608,116439,31,Woman
761446,OSSe3,v1,3127,1693,3478,1957,5-9-2023,14-9-14,1,2,small,laundromat,coins.png,scaled,0,zi,kitchen,k4_zi.png,m,1,644,57608,116439,31,Woman
761446,OSSe3,v1,3127,1693,3478,1957,5-9-2023,14-9-14,1,3,large,laundromat,shorts.png,scaled,1,zo,laundromat,l5_zo.png,m,0,713,57608,116439,31,Woman
761446,OSSe3,v1,3127,1693,3478,1957,5-9-2023,14-9-14,1,4,large,laundromat,detergent.png,misscaled,0,zi,kitchen,k3_zi.png,m,1,791,57608,116439,31,Woman
761446,OSSe3,v1,3127,1693,3478,1957,5-9-2023,14-9-14,1,5,large,kitchen,toaster.png,misscaled,1,zi,kitchen,k0_zi.png,c,1,682,57608,116439,31,Woman
761446,OSSe3,v1,3127,1693,3478,1957,5-9-2023,14-9-14,1,6,large,laundromat,shirt.png,scaled,0,zo,classroom,c4_zo.png,m,1,913,57608,116439,31,Woman
761446,OSSe3,v1,3127,1693,3478,1957,5-9-2023,14-9-14,1,7,small,classroom,paperclip.png,misscaled,0,zo,laundromat,l4_zo.png,c,0,785,57608,116439,31,Woman
761446,OSSe3,v1,3127,1693,3478,1957,5-9-2023,14-9-14,1,8,small,bathroom,lipstick.png,scaled,1,zi,bathroom,b3_zi.png,m,0,677,57608,116439,31,Woman
761446,OSSe3,v1,3127,1693,3478,1957,5-9-2023,14-9-14,1,9,large,kitchen,kettle.png,scaled,0,zo,classroom,c5_zo.png,m,1,942,57608,116439,31,Woman
761446,OSSe3,v1,3127,1693,3478,1957,5-9-2023,14-9-14,1,10,small,bathroom,floss.png,misscaled,0,zo,kitchen,k0_zo.png,m,1,956,57608,116439,31,Woman
761446,OSSe3,v1,3127,1693,3478,1957,5-9-2023,14-9-14,1,11,large,kitchen,pot.png,misscaled,0,zi,laundromat,l5_zi.png,c,0,736,57608,116439,31,Woman
761446,OSSe3,v1,3127,1693,3478,1957,5-9-2023,14-9-14,1,12,small,laundromat,tidepod.png,scaled,0,zi,kitchen,k5_zi.png,m,1,1044,57608,116439,31,Woman
761446,OSSe3,v1,3127,1693,3478,1957,5-9-2023,14-9-14,1,13,small,kitchen,spoon.png,misscaled,1,zo,kitchen,k3_zo.png,c,1,978,57608,116439,31,Woman
761446,OSSe3,v1,3127,1693,3478,1957,5-9-2023,14-9-14,1,14,large,classroom,computer.png,scaled,1,zo,classroom,c0_zo.png,c,1,947,57608,116439,31,Woman
761446,OSSe3,v1,3127,1693,3478,1957,5-9-2023,14-9-14,1,15,large,bathroom,loofah.png,misscaled,1,zi,bathroom,b1_zi.png,c,1,1007,57608,116439,31,Woman
739767,OSSe3,v1,1600,757,1600,900,5-9-2023,11-29-6,1,0,small,kitchen,sponge.png,scaled,0,zi,classroom,c5_zi.png,m,1,591,71039,139768,37,Woman
739767,OSSe3,v1,1600,757,1600,900,5-9-2023,11-29-6,1,1,small,laundromat,socks.png,misscaled,1,zo,laundromat,l1_zo.png,m,0,1906,71039,139768,37,Woman
739767,OSSe3,v1,1600,757,1600,900,5-9-2023,11-29-6,1,2,large,classroom,notebook.png,scaled,1,zo,classroom,c1_zo.png,c,1,282,71039,139768,37,Woman
739767,OSSe3,v1,1600,757,1600,900,5-9-2023,11-29-6,1,3,small,classroom,binderclip.png,misscaled,0,zo,kitchen,k4_zo.png,c,0,282,71039,139768,37,Woman
739767,OSSe3,v1,1600,757,1600,900,5-9-2023,11-29-6,1,4,large,laundromat,detergent.png,misscaled,1,zi,laundromat,l1_zi.png,c,1,1203,71039,139768,37,Woman
739767,OSSe3,v1,1600,757,1600,900,5-9-2023,11-29-6,1,5,large,kitchen,toaster.png,scaled,1,zo,kitchen,k1_zo.png,c,1,5240,71039,139768,37,Woman
739767,OSSe3,v1,1600,757,1600,900,5-9-2023,11-29-6,1,6,large,kitchen,kettle.png,misscaled,1,zi,kitchen,k3_zi.png,c,1,2953,71039,139768,37,Woman
739767,OSSe3,v1,1600,757,1600,900,5-9-2023,11-29-6,1,7,small,laundromat,tidepod.png,misscaled,1,zo,laundromat,l5_zo.png,c,1,986,71039,139768,37,Woman
739767,OSSe3,v1,1600,757,1600,900,5-9-2023,11-29-6,1,8,small,kitchen,spoon.png,misscaled,0,zo,laundromat,l3_zo.png,m,1,1675,71039,139768,37,Woman
739767,OSSe3,v1,1600,757,1600,900,5-9-2023,11-29-6,1,9,large,kitchen,pot.png,misscaled,0,zi,bathroom,b5_zi.png,m,1,1844,71039,139768,37,Woman
739767,OSSe3,v1,1600,757,1600,900,5-9-2023,11-29-6,1,10,large,laundromat,shirt.png,scaled,0,zo,bathroom,b0_zo.png,m,1,1672,71039,139768,37,Woman
739767,OSSe3,v1,1600,757,1600,900,5-9-2023,11-29-6,1,11,large,bathroom,loofah.png,scaled,0,zo,kitchen,k2_zo.png,m,1,3597,71039,139768,37,Woman
739767,OSSe3,v1,1600,757,1600,900,5-9-2023,11-29-6,1,12,small,laundromat,coins.png,scaled,1,zi,laundromat,l4_zi.png,c,1,1923,71039,139768,37,Woman
739767,OSSe3,v1,1600,757,1600,900,5-9-2023,11-29-6,1,13,small,classroom,paperclip.png,scaled,0,zi,bathroom,b2_zi.png,m,1,3344,71039,139768,37,Woman
739767,OSSe3,v1,1600,757,1600,900,5-9-2023,11-29-6,1,14,large,bathroom,hairdryer.png,misscaled,0,zi,kitchen,k0_zi.png,c,0,1687,71039,139768,37,Woman
739767,OSSe3,v1,1600,757,1600,900,5-9-2023,11-29-6,1,15,small,bathroom,floss.png,scaled,1,zi,bathroom,b0_zi.png,m,0,610,71039,139768,37,Woman
593263,OSSe3,v1,1364,625,1364,768,5-10-2023,9-49-40,1,0,large,laundromat,detergent.png,misscaled,1,zi,laundromat,l3_zi.png,c,1,2769,113113,215435,28,Man
593263,OSSe3,v1,1364,625,1364,768,5-10-2023,9-49-40,1,1,large,classroom,computer.png,misscaled,0,zi,bathroom,b2_zi.png,m,1,2161,113113,215435,28,Man
593263,OSSe3,v1,1364,625,1364,768,5-10-2023,9-49-40,1,2,small,classroom,binderclip.png,misscaled,1,zo,classroom,c4_zo.png,m,0,2624,113113,215435,28,Man
593263,OSSe3,v1,1364,625,1364,768,5-10-2023,9-49-40,1,3,small,classroom,eraser.png,scaled,1,zi,classroom,c3_zi.png,c,1,3092,113113,215435,28,Man
593263,OSSe3,v1,1364,625,1364,768,5-10-2023,9-49-40,1,4,small,bathroom,floss.png,misscaled,1,zo,bathroom,b1_zo.png,m,0,2238,113113,215435,28,Man
593263,OSSe3,v1,1364,625,1364,768,5-10-2023,9-49-40,1,5,large,kitchen,toaster.png,scaled,0,zo,bathroom,b0_zo.png,m,1,3276,113113,215435,28,Man
593263,OSSe3,v1,1364,625,1364,768,5-10-2023,9-49-40,1,6,large,laundromat,shirt.png,scaled,0,zo,kitchen,k1_zo.png,m,1,2557,113113,215435,28,Man
593263,OSSe3,v1,1364,625,1364,768,5-10-2023,9-49-40,1,7,small,classroom,paperclip.png,misscaled,0,zo,kitchen,k3_zo.png,m,1,1977,113113,215435,28,Man
593263,OSSe3,v1,1364,625,1364,768,5-10-2023,9-49-40,1,8,large,laundromat,shorts.png,misscaled,1,zi,laundromat,l1_zi.png,c,1,2392,113113,215435,28,Man
593263,OSSe3,v1,1364,625,1364,768,5-10-2023,9-49-40,1,9,large,bathroom,hairdryer.png,scaled,1,zo,bathroom,b4_zo.png,c,1,2950,113113,215435,28,Man
593263,OSSe3,v1,1364,625,1364,768,5-10-2023,9-49-40,1,10,small,kitchen,saltshaker.png,scaled,1,zi,kitchen,k2_zi.png,m,0,2180,113113,215435,28,Man
593263,OSSe3,v1,1364,625,1364,768,5-10-2023,9-49-40,1,11,large,kitchen,pot.png,misscaled,0,zi,classroom,c1_zi.png,m,1,2249,113113,215435,28,Man
593263,OSSe3,v1,1364,625,1364,768,5-10-2023,9-49-40,1,12,small,bathroom,lipstick.png,scaled,0,zi,classroom,c5_zi.png,none,0,30497,113113,215435,28,Man
593263,OSSe3,v1,1364,625,1364,768,5-10-2023,9-49-40,1,13,large,kitchen,kettle.png,scaled,1,zo,kitchen,k4_zo.png,c,1,2889,113113,215435,28,Man
593263,OSSe3,v1,1364,625,1364,768,5-10-2023,9-49-40,1,14,small,bathroom,nailclipper.png,scaled,0,zi,kitchen,k3_zi.png,m,1,2598,113113,215435,28,Man
593263,OSSe3,v1,1364,625,1364,768,5-10-2023,9-49-40,1,15,small,laundromat,socks.png,misscaled,0,zo,kitchen,k0_zo.png,m,1,2581,113113,215435,28,Man
108974,OSSe3,v1,1366,768,1366,768,5-10-2023,11-11-15,2,0,large,classroom,notebook.png,misscaled,0,zi,bathroom,b1_zi.png,m,1,1888,71352,231789,25,Woman
108974,OSSe3,v1,1366,768,1366,768,5-10-2023,11-11-15,2,1,large,bathroom,tissuebox.png,misscaled,1,zi,bathroom,b4_zi.png,c,1,1559,71352,231789,25,Woman
108974,OSSe3,v1,1366,768,1366,768,5-10-2023,11-11-15,2,2,small,bathroom,lipstick.png,misscaled,1,zo,bathroom,b3_zo.png,m,0,1494,71352,231789,25,Woman
108974,OSSe3,v1,1366,768,1366,768,5-10-2023,11-11-15,2,3,small,classroom,binderclip.png,misscaled,1,zo,classroom,c0_zo.png,c,1,1958,71352,231789,25,Woman
108974,OSSe3,v1,1366,768,1366,768,5-10-2023,11-11-15,2,4,small,laundromat,socks.png,scaled,0,zi,kitchen,k3_zi.png,c,0,2004,71352,231789,25,Woman
108974,OSSe3,v1,1366,768,1366,768,5-10-2023,11-11-15,2,5,small,bathroom,nailclipper.png,scaled,0,zi,kitchen,k2_zi.png,m,1,1561,71352,231789,25,Woman
108974,OSSe3,v1,1366,768,1366,768,5-10-2023,11-11-15,2,6,large,bathroom,hairdryer.png,misscaled,0,zi,classroom,c0_zi.png,m,1,1685,71352,231789,25,Woman
108974,OSSe3,v1,1366,768,1366,768,5-10-2023,11-11-15,2,7,large,laundromat,detergent.png,scaled,1,zo,laundromat,l3_zo.png,c,1,2525,71352,231789,25,Woman
108974,OSSe3,v1,1366,768,1366,768,5-10-2023,11-11-15,2,8,large,bathroom,loofah.png,scaled,0,zo,laundromat,l4_zo.png,c,0,2097,71352,231789,25,Woman
108974,OSSe3,v1,1366,768,1366,768,5-10-2023,11-11-15,2,9,large,kitchen,toaster.png,scaled,1,zo,kitchen,k5_zo.png,c,1,2859,71352,231789,25,Woman
108974,OSSe3,v1,1366,768,1366,768,5-10-2023,11-11-15,2,10,large,kitchen,pot.png,misscaled,1,zi,kitchen,k4_zi.png,c,1,1408,71352,231789,25,Woman
108974,OSSe3,v1,1366,768,1366,768,5-10-2023,11-11-15,2,11,small,classroom,eraser.png,misscaled,0,zo,laundromat,l5_zo.png,m,1,1526,71352,231789,25,Woman
108974,OSSe3,v1,1366,768,1366,768,5-10-2023,11-11-15,2,12,small,classroom,paperclip.png,misscaled,0,zo,bathroom,b2_zo.png,m,1,1996,71352,231789,25,Woman
108974,OSSe3,v1,1366,768,1366,768,5-10-2023,11-11-15,2,13,large,kitchen,kettle.png,scaled,0,zo,bathroom,b0_zo.png,m,1,2040,71352,231789,25,Woman
108974,OSSe3,v1,1366,768,1366,768,5-10-2023,11-11-15,2,14,small,laundromat,tidepod.png,scaled,1,zi,laundromat,l0_zi.png,c,1,1546,71352,231789,25,Woman
108974,OSSe3,v1,1366,768,1366,768,5-10-2023,11-11-15,2,15,small,kitchen,spoon.png,scaled,1,zi,kitchen,k5_zi.png,c,1,2158,71352,231789,25,Woman
792033,OSSe3,v1,1517,853,1366,768,5-9-2023,12-36-47,2,0,small,laundromat,coins.png,scaled,0,zi,kitchen,k1_zi.png,m,1,2542,77434,258560,41,Woman
792033,OSSe3,v1,1517,853,1366,768,5-9-2023,12-36-47,2,1,large,laundromat,shorts.png,scaled,1,zo,laundromat,l4_zo.png,c,1,1937,77434,258560,41,Woman
792033,OSSe3,v1,1517,853,1366,768,5-9-2023,12-36-47,2,2,small,laundromat,socks.png,scaled,1,zi,laundromat,l5_zi.png,m,0,1583,77434,258560,41,Woman
792033,OSSe3,v1,1517,853,1366,768,5-9-2023,12-36-47,2,3,large,laundromat,shirt.png,scaled,0,zo,bathroom,b5_zo.png,m,1,1600,77434,258560,41,Woman
792033,OSSe3,v1,1517,853,1366,768,5-9-2023,12-36-47,2,4,large,bathroom,loofah.png,scaled,0,zo,laundromat,l5_zo.png,m,1,1958,77434,258560,41,Woman
792033,OSSe3,v1,1517,853,1366,768,5-9-2023,12-36-47,2,5,small,kitchen,saltshaker.png,scaled,0,zi,laundromat,l1_zi.png,m,1,2102,77434,258560,41,Woman
792033,OSSe3,v1,1517,853,1366,768,5-9-2023,12-36-47,2,6,small,bathroom,nailclipper.png,misscaled,0,zo,kitchen,k5_zo.png,c,0,2032,77434,258560,41,Woman
792033,OSSe3,v1,1517,853,1366,768,5-9-2023,12-36-47,2,7,small,classroom,eraser.png,misscaled,1,zo,classroom,c3_zo.png,m,0,1865,77434,258560,41,Woman
792033,OSSe3,v1,1517,853,1366,768,5-9-2023,12-36-47,2,8,small,laundromat,tidepod.png,misscaled,1,zo,laundromat,l3_zo.png,c,1,1952,77434,258560,41,Woman
792033,OSSe3,v1,1517,853,1366,768,5-9-2023,12-36-47,2,9,large,bathroom,hairdryer.png,misscaled,0,zi,laundromat,l4_zi.png,c,0,1859,77434,258560,41,Woman
792033,OSSe3,v1,1517,853,1366,768,5-9-2023,12-36-47,2,10,large,laundromat,detergent.png,scaled,1,zo,laundromat,l1_zo.png,c,1,2335,77434,258560,41,Woman
792033,OSSe3,v1,1517,853,1366,768,5-9-2023,12-36-47,2,11,small,classroom,binderclip.png,misscaled,0,zo,laundromat,l0_zo.png,m,1,3338,77434,258560,41,Woman
792033,OSSe3,v1,1517,853,1366,768,5-9-2023,12-36-47,2,12,large,bathroom,tissuebox.png,misscaled,1,zi,bathroom,b3_zi.png,c,1,1777,77434,258560,41,Woman
792033,OSSe3,v1,1517,853,1366,768,5-9-2023,12-36-47,2,13,small,bathroom,lipstick.png,scaled,1,zi,bathroom,b4_zi.png,c,1,1915,77434,258560,41,Woman
792033,OSSe3,v1,1517,853,1366,768,5-9-2023,12-36-47,2,14,large,kitchen,pot.png,misscaled,1,zi,kitchen,k5_zi.png,c,1,2085,77434,258560,41,Woman
792033,OSSe3,v1,1517,853,1366,768,5-9-2023,12-36-47,2,15,large,kitchen,toaster.png,misscaled,0,zi,classroom,c5_zi.png,m,1,2403,77434,258560,41,Woman
319253,OSSe3,v1,1366,625,1366,768,5-10-2023,8-11-4,2,0,small,laundromat,tidepod.png,misscaled,1,zo,laundromat,l2_zo.png,c,1,2039,75817,175615,27,Woman
319253,OSSe3,v1,1366,625,1366,768,5-10-2023,8-11-4,2,1,small,laundromat,coins.png,scaled,0,zi,bathroom,b4_zi.png,m,1,2556,75817,175615,27,Woman
319253,OSSe3,v1,1366,625,1366,768,5-10-2023,8-11-4,2,2,small,bathroom,floss.png,scaled,1,zi,bathroom,b1_zi.png,c,1,1961,75817,175615,27,Woman
319253,OSSe3,v1,1366,625,1366,768,5-10-2023,8-11-4,2,3,large,bathroom,loofah.png,misscaled,0,zi,laundromat,l2_zi.png,c,0,1838,75817,175615,27,Woman
319253,OSSe3,v1,1366,625,1366,768,5-10-2023,8-11-4,2,4,large,bathroom,hairdryer.png,scaled,0,zo,classroom,c5_zo.png,m,1,1931,75817,175615,27,Woman
319253,OSSe3,v1,1366,625,1366,768,5-10-2023,8-11-4,2,5,small,laundromat,socks.png,scaled,0,zi,kitchen,k0_zi.png,c,0,1985,75817,175615,27,Woman
319253,OSSe3,v1,1366,625,1366,768,5-10-2023,8-11-4,2,6,small,bathroom,lipstick.png,misscaled,0,zo,kitchen,k0_zo.png,m,1,2003,75817,175615,27,Woman
319253,OSSe3,v1,1366,625,1366,768,5-10-2023,8-11-4,2,7,large,classroom,computer.png,scaled,1,zo,classroom,c1_zo.png,m,0,1646,75817,175615,27,Woman
319253,OSSe3,v1,1366,625,1366,768,5-10-2023,8-11-4,2,8,small,kitchen,sponge.png,scaled,1,zi,kitchen,k1_zi.png,c,1,2418,75817,175615,27,Woman
319253,OSSe3,v1,1366,625,1366,768,5-10-2023,8-11-4,2,9,large,bathroom,tissuebox.png,misscaled,1,zi,bathroom,b0_zi.png,c,1,2084,75817,175615,27,Woman
319253,OSSe3,v1,1366,625,1366,768,5-10-2023,8-11-4,2,10,large,classroom,notebook.png,scaled,1,zo,classroom,c0_zo.png,c,1,1955,75817,175615,27,Woman
319253,OSSe3,v1,1366,625,1366,768,5-10-2023,8-11-4,2,11,large,kitchen,kettle.png,scaled,0,zo,classroom,c2_zo.png,m,1,1695,75817,175615,27,Woman
319253,OSSe3,v1,1366,625,1366,768,5-10-2023,8-11-4,2,12,small,kitchen,saltshaker.png,misscaled,1,zo,kitchen,k5_zo.png,c,1,1549,75817,175615,27,Woman
319253,OSSe3,v1,1366,625,1366,768,5-10-2023,8-11-4,2,13,large,classroom,clipboard.png,misscaled,0,zi,kitchen,k4_zi.png,c,0,2238,75817,175615,27,Woman
319253,OSSe3,v1,1366,625,1366,768,5-10-2023,8-11-4,2,14,large,laundromat,shorts.png,misscaled,1,zi,laundromat,l3_zi.png,c,1,2097,75817,175615,27,Woman
319253,OSSe3,v1,1366,625,1366,768,5-10-2023,8-11-4,2,15,small,classroom,binderclip.png,misscaled,0,zo,laundromat,l0_zo.png,m,1,1752,75817,175615,27,Woman
478061,OSSe3,v1,1424,771,1440,900,5-10-2023,11-0-40,1,0,large,classroom,computer.png,scaled,1,zo,classroom,c1_zo.png,c,1,1830,68298,267340,35,Man
478061,OSSe3,v1,1424,771,1440,900,5-10-2023,11-0-40,1,1,large,bathroom,hairdryer.png,misscaled,0,zi,laundromat,l4_zi.png,m,1,2013,68298,267340,35,Man
478061,OSSe3,v1,1424,771,1440,900,5-10-2023,11-0-40,1,2,small,bathroom,nailclipper.png,scaled,0,zi,laundromat,l2_zi.png,m,1,1742,68298,267340,35,Man
478061,OSSe3,v1,1424,771,1440,900,5-10-2023,11-0-40,1,3,large,bathroom,tissuebox.png,misscaled,1,zi,bathroom,b5_zi.png,c,1,1181,68298,267340,35,Man
478061,OSSe3,v1,1424,771,1440,900,5-10-2023,11-0-40,1,4,small,classroom,paperclip.png,misscaled,0,zo,bathroom,b2_zo.png,m,1,1694,68298,267340,35,Man
478061,OSSe3,v1,1424,771,1440,900,5-10-2023,11-0-40,1,5,small,bathroom,lipstick.png,misscaled,1,zo,bathroom,b1_zo.png,m,0,1238,68298,267340,35,Man
478061,OSSe3,v1,1424,771,1440,900,5-10-2023,11-0-40,1,6,large,kitchen,kettle.png,misscaled,1,zi,kitchen,k3_zi.png,c,1,1998,68298,267340,35,Man
478061,OSSe3,v1,1424,771,1440,900,5-10-2023,11-0-40,1,7,small,laundromat,tidepod.png,misscaled,0,zo,classroom,c4_zo.png,m,1,1319,68298,267340,35,Man
478061,OSSe3,v1,1424,771,1440,900,5-10-2023,11-0-40,1,8,large,kitchen,toaster.png,scaled,1,zo,kitchen,k3_zo.png,c,1,1974,68298,267340,35,Man
478061,OSSe3,v1,1424,771,1440,900,5-10-2023,11-0-40,1,9,small,kitchen,saltshaker.png,scaled,0,zi,bathroom,b0_zi.png,m,1,3831,68298,267340,35,Man
478061,OSSe3,v1,1424,771,1440,900,5-10-2023,11-0-40,1,10,large,classroom,notebook.png,misscaled,0,zi,bathroom,b1_zi.png,m,1,1462,68298,267340,35,Man
478061,OSSe3,v1,1424,771,1440,900,5-10-2023,11-0-40,1,11,large,bathroom,loofah.png,scaled,0,zo,laundromat,l0_zo.png,c,0,1806,68298,267340,35,Man
478061,OSSe3,v1,1424,771,1440,900,5-10-2023,11-0-40,1,12,small,laundromat,coins.png,scaled,1,zi,laundromat,l0_zi.png,c,1,2038,68298,267340,35,Man
478061,OSSe3,v1,1424,771,1440,900,5-10-2023,11-0-40,1,13,large,kitchen,pot.png,scaled,0,zo,classroom,c2_zo.png,m,1,1669,68298,267340,35,Man
478061,OSSe3,v1,1424,771,1440,900,5-10-2023,11-0-40,1,14,small,classroom,binderclip.png,misscaled,1,zo,classroom,c3_zo.png,c,1,2678,68298,267340,35,Man
478061,OSSe3,v1,1424,771,1440,900,5-10-2023,11-0-40,1,15,small,bathroom,floss.png,scaled,1,zi,bathroom,b4_zi.png,c,1,1790,68298,267340,35,Man
