subjID,experimentName,versionName,windowWidth,windowHeight,screenWidth,screenHeight,startDate,startTime,pracTries,trialNum,objectSize,objectCategory,object,misscaled,objectScene1SemanticCongruency,scene1ZoomName,scene1Category,scene1,keyPress,accuracy,RT,ratingTrialNum,rating,ratingObject,ratingScene,experimentTime,totalTime,age,gender
388766,OSSe4,v1,1920,937,1920,1080,5-15-2023,9-53-43,1,0,small,bathroom,lipstick.png,misscaled,0,zo,laundromat,l4_zo.png,m,1,1341,0,5,lipstick.png,l4_zo.png,141889,273484,36,Man
388766,OSSe4,v1,1920,937,1920,1080,5-15-2023,9-53-43,1,1,small,kitchen,sponge.png,misscaled,0,zo,classroom,c0_zo.png,m,1,1554,1,5,sponge.png,c0_zo.png,141889,273484,36,Man
388766,OSSe4,v1,1920,937,1920,1080,5-15-2023,9-53-43,1,2,large,laundromat,shirt.png,misscaled,0,zi,classroom,c0_zi.png,c,0,941,2,1,shirt.png,c0_zi.png,141889,273484,36,Man
388766,OSSe4,v1,1920,937,1920,1080,5-15-2023,9-53-43,1,3,small,laundromat,tidepod.png,scaled,1,zi,laundromat,l1_zi.png,c,1,1256,3,4,tidepod.png,l1_zi.png,141889,273484,36,Man
388766,OSSe4,v1,1920,937,1920,1080,5-15-2023,9-53-43,1,4,small,classroom,binderclip.png,scaled,0,zi,kitchen,k1_zi.png,c,0,1194,4,4,binderclip.png,k1_zi.png,141889,273484,36,Man
388766,OSSe4,v1,1920,937,1920,1080,5-15-2023,9-53-43,1,5,large,classroom,clipboard.png,scaled,1,zo,classroom,c1_zo.png,c,1,1120,5,3,clipboard.png,c1_zo.png,141889,273484,36,Man
388766,OSSe4,v1,1920,937,1920,1080,5-15-2023,9-53-43,1,6,large,bathroom,loofah.png,scaled,0,zo,classroom,c2_zo.png,m,1,1074,6,5,loofah.png,c2_zo.png,141889,273484,36,Man
388766,OSSe4,v1,1920,937,1920,1080,5-15-2023,9-53-43,1,7,small,bathroom,nailclipper.png,misscaled,1,zo,bathroom,b5_zo.png,m,0,1377,7,5,nailclipper.png,b5_zo.png,141889,273484,36,Man
388766,OSSe4,v1,1920,937,1920,1080,5-15-2023,9-53-43,1,8,large,kitchen,toaster.png,scaled,0,zo,bathroom,b2_zo.png,m,1,1362,8,3,toaster.png,b2_zo.png,141889,273484,36,Man
388766,OSSe4,v1,1920,937,1920,1080,5-15-2023,9-53-43,1,9,small,bathroom,floss.png,misscaled,1,zo,bathroom,b1_zo.png,c,1,1609,9,5,floss.png,b1_zo.png,141889,273484,36,Man
388766,OSSe4,v1,1920,937,1920,1080,5-15-2023,9-53-43,1,10,large,classroom,notebook.png,misscaled,1,zi,classroom,c2_zi.png,c,1,1488,10,1,notebook.png,c2_zi.png,141889,273484,36,Man
388766,OSSe4,v1,1920,937,1920,1080,5-15-2023,9-53-43,1,11,small,kitchen,saltshaker.png,scaled,0,zi,bathroom,b1_zi.png,m,1,1468,11,3,saltshaker.png,b1_zi.png,141889,273484,36,Man
388766,OSSe4,v1,1920,937,1920,1080,5-15-2023,9-53-43,1,12,large,laundromat,shorts.png,misscaled,0,zi,kitchen,k2_zi.png,m,1,1192,12,1,shorts.png,k2_zi.png,141889,273484,36,Man
388766,OSSe4,v1,1920,937,1920,1080,5-15-2023,9-53-43,1,13,small,classroom,eraser.png,scaled,1,zi,classroom,c3_zi.png,c,1,1147,13,4,eraser.png,c3_zi.png,141889,273484,36,Man
388766,OSSe4,v1,1920,937,1920,1080,5-15-2023,9-53-43,1,14,large,bathroom,hairdryer.png,scaled,1,zo,bathroom,b3_zo.png,c,1,810,14,5,hairdryer.png,b3_zo.png,141889,273484,36,Man
388766,OSSe4,v1,1920,937,1920,1080,5-15-2023,9-53-43,1,15,large,bathroom,tissuebox.png,misscaled,1,zi,bathroom,b0_zi.png,c,1,1155,15,1,tissuebox.png,b0_zi.png,141889,273484,36,Man
566526,OSSe4,v1,1240,644,1536,864,5-15-2023,11-7-44,2,0,small,laundromat,tidepod.png,scaled,0,zi,bathroom,b2_zi.png,c,0,1209,0,3,tidepod.png,b2_zi.png,164158,281189,61,Man
566526,OSSe4,v1,1240,644,1536,864,5-15-2023,11-7-44,2,1,large,bathroom,hairdryer.png,misscaled,1,zi,bathroom,b1_zi.png,c,1,1664,1,3,hairdryer.png,b1_zi.png,164158,281189,61,Man
566526,OSSe4,v1,1240,644,1536,864,5-15-2023,11-7-44,2,2,small,laundromat,coins.png,misscaled,0,zo,bathroom,b1_zo.png,m,1,1001,2,5,coins.png,b1_zo.png,164158,281189,61,Man
566526,OSSe4,v1,1240,644,1536,864,5-15-2023,11-7-44,2,3,small,bathroom,nailclipper.png,misscaled,0,zo,classroom,c4_zo.png,m,1,1257,3,5,nailclipper.png,c4_zo.png,164158,281189,61,Man
566526,OSSe4,v1,1240,644,1536,864,5-15-2023,11-7-44,2,4,small,laundromat,socks.png,misscaled,1,zo,laundromat,l3_zo.png,c,1,1529,4,5,socks.png,l3_zo.png,164158,281189,61,Man
566526,OSSe4,v1,1240,644,1536,864,5-15-2023,11-7-44,2,5,large,classroom,computer.png,scaled,1,zo,classroom,c2_zo.png,c,1,1353,5,3,computer.png,c2_zo.png,164158,281189,61,Man
566526,OSSe4,v1,1240,644,1536,864,5-15-2023,11-7-44,2,6,large,laundromat,shirt.png,misscaled,0,zi,kitchen,k1_zi.png,c,0,1032,6,1,shirt.png,k1_zi.png,164158,281189,61,Man
566526,OSSe4,v1,1240,644,1536,864,5-15-2023,11-7-44,2,7,small,bathroom,floss.png,misscaled,1,zo,bathroom,b3_zo.png,c,1,1072,7,3,floss.png,b3_zo.png,164158,281189,61,Man
566526,OSSe4,v1,1240,644,1536,864,5-15-2023,11-7-44,2,8,small,bathroom,lipstick.png,scaled,0,zi,classroom,c1_zi.png,m,1,1144,8,4,lipstick.png,c1_zi.png,164158,281189,61,Man
566526,OSSe4,v1,1240,644,1536,864,5-15-2023,11-7-44,2,9,large,classroom,clipboard.png,scaled,1,zo,classroom,c0_zo.png,c,1,1495,9,5,clipboard.png,c0_zo.png,164158,281189,61,Man
566526,OSSe4,v1,1240,644,1536,864,5-15-2023,11-7-44,2,10,small,classroom,paperclip.png,scaled,1,zi,classroom,c2_zi.png,c,1,1111,10,4,paperclip.png,c2_zi.png,164158,281189,61,Man
566526,OSSe4,v1,1240,644,1536,864,5-15-2023,11-7-44,2,11,large,bathroom,loofah.png,scaled,0,zo,classroom,c3_zo.png,c,0,1112,11,5,loofah.png,c3_zo.png,164158,281189,61,Man
566526,OSSe4,v1,1240,644,1536,864,5-15-2023,11-7-44,2,12,large,laundromat,shorts.png,scaled,0,zo,classroom,c5_zo.png,m,1,1120,12,4,shorts.png,c5_zo.png,164158,281189,61,Man
566526,OSSe4,v1,1240,644,1536,864,5-15-2023,11-7-44,2,13,small,classroom,binderclip.png,scaled,1,zi,classroom,c3_zi.png,c,1,1431,13,3,binderclip.png,c3_zi.png,164158,281189,61,Man
566526,OSSe4,v1,1240,644,1536,864,5-15-2023,11-7-44,2,14,large,laundromat,detergent.png,misscaled,1,zi,laundromat,l5_zi.png,c,1,1302,14,3,detergent.png,l5_zi.png,164158,281189,61,Man
566526,OSSe4,v1,1240,644,1536,864,5-15-2023,11-7-44,2,15,large,kitchen,toaster.png,misscaled,0,zi,laundromat,l3_zi.png,m,1,1239,15,2,toaster.png,l3_zi.png,164158,281189,61,Man
752926,OSSe4,v1,1422,632,1280,720,5-15-2023,9-10-44,1,0,small,laundromat,socks.png,scaled,1,zi,laundromat,l4_zi.png,c,1,1112,0,3,socks.png,l4_zi.png,123978,204828,59,Man
752926,OSSe4,v1,1422,632,1280,720,5-15-2023,9-10-44,1,1,large,laundromat,shorts.png,scaled,1,zo,laundromat,l3_zo.png,c,1,869,1,5,shorts.png,l3_zo.png,123978,204828,59,Man
752926,OSSe4,v1,1422,632,1280,720,5-15-2023,9-10-44,1,2,small,bathroom,floss.png,scaled,0,zi,classroom,c3_zi.png,c,0,1127,2,5,floss.png,c3_zi.png,123978,204828,59,Man
752926,OSSe4,v1,1422,632,1280,720,5-15-2023,9-10-44,1,3,large,laundromat,detergent.png,scaled,1,zo,laundromat,l4_zo.png,c,1,884,3,4,detergent.png,l4_zo.png,123978,204828,59,Man
752926,OSSe4,v1,1422,632,1280,720,5-15-2023,9-10-44,1,4,small,bathroom,nailclipper.png,scaled,1,zi,bathroom,b1_zi.png,c,1,992,4,4,nailclipper.png,b1_zi.png,123978,204828,59,Man
752926,OSSe4,v1,1422,632,1280,720,5-15-2023,9-10-44,1,5,large,classroom,notebook.png,misscaled,1,zi,classroom,c2_zi.png,m,0,1056,5,1,notebook.png,c2_zi.png,123978,204828,59,Man
752926,OSSe4,v1,1422,632,1280,720,5-15-2023,9-10-44,1,6,large,bathroom,tissuebox.png,misscaled,1,zi,bathroom,b3_zi.png,c,1,943,6,1,tissuebox.png,b3_zi.png,123978,204828,59,Man
752926,OSSe4,v1,1422,632,1280,720,5-15-2023,9-10-44,1,7,large,bathroom,hairdryer.png,misscaled,0,zi,classroom,c5_zi.png,m,1,1114,7,1,hairdryer.png,c5_zi.png,123978,204828,59,Man
752926,OSSe4,v1,1422,632,1280,720,5-15-2023,9-10-44,1,8,small,kitchen,saltshaker.png,scaled,0,zi,classroom,c0_zi.png,m,1,1419,8,3,saltshaker.png,c0_zi.png,123978,204828,59,Man
752926,OSSe4,v1,1422,632,1280,720,5-15-2023,9-10-44,1,9,small,bathroom,lipstick.png,misscaled,1,zo,bathroom,b5_zo.png,c,1,1022,9,5,lipstick.png,b5_zo.png,123978,204828,59,Man
752926,OSSe4,v1,1422,632,1280,720,5-15-2023,9-10-44,1,10,small,laundromat,coins.png,misscaled,0,zo,bathroom,b3_zo.png,m,1,1115,10,5,coins.png,b3_zo.png,123978,204828,59,Man
752926,OSSe4,v1,1422,632,1280,720,5-15-2023,9-10-44,1,11,large,bathroom,loofah.png,scaled,0,zo,kitchen,k2_zo.png,m,1,1377,11,5,loofah.png,k2_zo.png,123978,204828,59,Man
752926,OSSe4,v1,1422,632,1280,720,5-15-2023,9-10-44,1,12,large,kitchen,kettle.png,scaled,0,zo,laundromat,l5_zo.png,m,1,1236,12,3,kettle.png,l5_zo.png,123978,204828,59,Man
752926,OSSe4,v1,1422,632,1280,720,5-15-2023,9-10-44,1,13,large,classroom,computer.png,misscaled,0,zi,laundromat,l3_zi.png,m,1,1629,13,1,computer.png,l3_zi.png,123978,204828,59,Man
752926,OSSe4,v1,1422,632,1280,720,5-15-2023,9-10-44,1,14,small,classroom,binderclip.png,misscaled,0,zo,laundromat,l0_zo.png,m,1,1441,14,5,binderclip.png,l0_zo.png,123978,204828,59,Man
752926,OSSe4,v1,1422,632,1280,720,5-15-2023,9-10-44,1,15,small,laundromat,tidepod.png,misscaled,1,zo,laundromat,l2_zo.png,c,1,1535,15,4,tidepod.png,l2_zo.png,123978,204828,59,Man
986867,OSSe4,v1,1512,865,1512,982,5-15-2023,10-52-42,1,0,large,laundromat,shirt.png,scaled,1,zo,laundromat,l1_zo.png,c,1,715,0,3,shirt.png,l1_zo.png,162183,288467,34,Man
986867,OSSe4,v1,1512,865,1512,982,5-15-2023,10-52-42,1,1,large,kitchen,pot.png,scaled,1,zo,kitchen,k3_zo.png,c,1,710,1,3,pot.png,k3_zo.png,162183,288467,34,Man
986867,OSSe4,v1,1512,865,1512,982,5-15-2023,10-52-42,1,2,small,kitchen,saltshaker.png,misscaled,1,zo,kitchen,k4_zo.png,c,1,711,2,3,saltshaker.png,k4_zo.png,162183,288467,34,Man
986867,OSSe4,v1,1512,865,1512,982,5-15-2023,10-52-42,1,3,small,kitchen,spoon.png,misscaled,0,zo,classroom,c0_zo.png,m,1,863,3,4,spoon.png,c0_zo.png,162183,288467,34,Man
986867,OSSe4,v1,1512,865,1512,982,5-15-2023,10-52-42,1,4,large,bathroom,loofah.png,scaled,0,zo,classroom,c2_zo.png,m,1,776,4,5,loofah.png,c2_zo.png,162183,288467,34,Man
986867,OSSe4,v1,1512,865,1512,982,5-15-2023,10-52-42,1,5,small,laundromat,tidepod.png,misscaled,1,zo,laundromat,l4_zo.png,c,1,830,5,3,tidepod.png,l4_zo.png,162183,288467,34,Man
986867,OSSe4,v1,1512,865,1512,982,5-15-2023,10-52-42,1,6,large,classroom,computer.png,misscaled,0,zi,bathroom,b5_zi.png,m,1,689,6,4,computer.png,b5_zi.png,162183,288467,34,Man
986867,OSSe4,v1,1512,865,1512,982,5-15-2023,10-52-42,1,7,small,classroom,binderclip.png,misscaled,0,zo,kitchen,k2_zo.png,m,1,704,7,4,binderclip.png,k2_zo.png,162183,288467,34,Man
986867,OSSe4,v1,1512,865,1512,982,5-15-2023,10-52-42,1,8,small,laundromat,socks.png,scaled,0,zi,kitchen,k1_zi.png,m,1,685,8,4,socks.png,k1_zi.png,162183,288467,34,Man
986867,OSSe4,v1,1512,865,1512,982,5-15-2023,10-52-42,1,9,large,classroom,notebook.png,misscaled,1,zi,classroom,c5_zi.png,c,1,674,9,3,notebook.png,c5_zi.png,162183,288467,34,Man
986867,OSSe4,v1,1512,865,1512,982,5-15-2023,10-52-42,1,10,large,classroom,clipboard.png,scaled,0,zo,laundromat,l0_zo.png,c,0,677,10,4,clipboard.png,l0_zo.png,162183,288467,34,Man
986867,OSSe4,v1,1512,865,1512,982,5-15-2023,10-52-42,1,11,small,classroom,paperclip.png,scaled,1,zi,classroom,c2_zi.png,c,1,854,11,3,paperclip.png,c2_zi.png,162183,288467,34,Man
986867,OSSe4,v1,1512,865,1512,982,5-15-2023,10-52-42,1,12,large,laundromat,detergent.png,misscaled,1,zi,laundromat,l1_zi.png,m,0,686,12,3,detergent.png,l1_zi.png,162183,288467,34,Man
986867,OSSe4,v1,1512,865,1512,982,5-15-2023,10-52-42,1,13,small,laundromat,coins.png,scaled,0,zi,classroom,c1_zi.png,m,1,704,13,5,coins.png,c1_zi.png,162183,288467,34,Man
986867,OSSe4,v1,1512,865,1512,982,5-15-2023,10-52-42,1,14,large,laundromat,shorts.png,misscaled,0,zi,classroom,c4_zi.png,m,1,790,14,1,shorts.png,c4_zi.png,162183,288467,34,Man
986867,OSSe4,v1,1512,865,1512,982,5-15-2023,10-52-42,1,15,small,bathroom,floss.png,scaled,1,zi,bathroom,b3_zi.png,c,1,693,15,3,floss.png,b3_zi.png,162183,288467,34,Man
657504,OSSe4,v1,1280,881,1280,1024,5-15-2023,7-47-25,3,2,large,bathroom,hairdryer.png,misscaled,1,zi,bathroom,b1_zi.png,c,1,1824,2,4,hairdryer.png,b1_zi.png,192358,440299,45,Woman
657504,OSSe4,v1,1280,881,1280,1024,5-15-2023,7-47-25,3,3,large,kitchen,toaster.png,scaled,0,zo,laundromat,l0_zo.png,m,1,1514,3,3,toaster.png,l0_zo.png,192358,440299,45,Woman
657504,OSSe4,v1,1280,881,1280,1024,5-15-2023,7-47-25,3,5,large,kitchen,kettle.png,scaled,1,zo,kitchen,k2_zo.png,c,1,1688,5,1,kettle.png,k2_zo.png,192358,440299,45,Woman
657504,OSSe4,v1,1280,881,1280,1024,5-15-2023,7-47-25,3,6,small,kitchen,spoon.png,scaled,0,zi,laundromat,l2_zi.png,c,0,1619,6,5,spoon.png,l2_zi.png,192358,440299,45,Woman
657504,OSSe4,v1,1280,881,1280,1024,5-15-2023,7-47-25,3,7,small,bathroom,nailclipper.png,misscaled,0,zo,laundromat,l2_zo.png,c,0,1100,7,4,nailclipper.png,l2_zo.png,192358,440299,45,Woman
657504,OSSe4,v1,1280,881,1280,1024,5-15-2023,7-47-25,3,8,small,laundromat,coins.png,misscaled,1,zo,laundromat,l3_zo.png,c,1,1276,8,4,coins.png,l3_zo.png,192358,440299,45,Woman
657504,OSSe4,v1,1280,881,1280,1024,5-15-2023,7-47-25,3,9,large,classroom,notebook.png,misscaled,1,zi,classroom,c3_zi.png,m,0,1177,9,1,notebook.png,c3_zi.png,192358,440299,45,Woman
657504,OSSe4,v1,1280,881,1280,1024,5-15-2023,7-47-25,3,10,large,laundromat,shirt.png,scaled,1,zo,laundromat,l1_zo.png,c,1,1676,10,1,shirt.png,l1_zo.png,192358,440299,45,Woman
657504,OSSe4,v1,1280,881,1280,1024,5-15-2023,7-47-25,3,11,large,classroom,computer.png,misscaled,0,zi,bathroom,b2_zi.png,m,1,1269,11,5,computer.png,b2_zi.png,192358,440299,45,Woman
657504,OSSe4,v1,1280,881,1280,1024,5-15-2023,7-47-25,3,12,small,kitchen,sponge.png,misscaled,1,zo,kitchen,k0_zo.png,c,1,1348,12,2,sponge.png,k0_zo.png,192358,440299,45,Woman
657504,OSSe4,v1,1280,881,1280,1024,5-15-2023,7-47-25,3,13,large,laundromat,shorts.png,scaled,0,zo,classroom,c3_zo.png,m,1,1447,13,5,shorts.png,c3_zo.png,192358,440299,45,Woman
657504,OSSe4,v1,1280,881,1280,1024,5-15-2023,7-47-25,3,14,small,kitchen,saltshaker.png,scaled,1,zi,kitchen,k5_zi.png,c,1,1300,14,1,saltshaker.png,k5_zi.png,192358,440299,45,Woman
657504,OSSe4,v1,1280,881,1280,1024,5-15-2023,7-47-25,3,15,small,bathroom,floss.png,scaled,1,zi,bathroom,b0_zi.png,c,1,1729,15,1,floss.png,b0_zi.png,192358,440299,45,Woman
853028,OSSe4,v1,1319,966,1920,1080,5-15-2023,10-27-10,1,0,small,bathroom,nailclipper.png,misscaled,1,zo,bathroom,b4_zo.png,m,0,1222,0,5,nailclipper.png,b4_zo.png,148672,278917,41,Man
853028,OSSe4,v1,1319,966,1920,1080,5-15-2023,10-27-10,1,1,small,kitchen,sponge.png,misscaled,1,zo,kitchen,k4_zo.png,c,1,956,1,4,sponge.png,k4_zo.png,148672,278917,41,Man
853028,OSSe4,v1,1319,966,1920,1080,5-15-2023,10-27-10,1,2,large,classroom,clipboard.png,scaled,1,zo,classroom,c0_zo.png,c,1,970,2,3,clipboard.png,c0_zo.png,148672,278917,41,Man
853028,OSSe4,v1,1319,966,1920,1080,5-15-2023,10-27-10,1,3,small,bathroom,floss.png,scaled,1,zi,bathroom,b0_zi.png,c,1,1089,3,3,floss.png,b0_zi.png,148672,278917,41,Man
853028,OSSe4,v1,1319,966,1920,1080,5-15-2023,10-27-10,1,4,large,bathroom,hairdryer.png,scaled,1,zo,bathroom,b1_zo.png,c,1,798,4,4,hairdryer.png,b1_zo.png,148672,278917,41,Man
853028,OSSe4,v1,1319,966,1920,1080,5-15-2023,10-27-10,1,5,large,kitchen,kettle.png,misscaled,0,zi,classroom,c1_zi.png,m,1,1151,5,1,kettle.png,c1_zi.png,148672,278917,41,Man
853028,OSSe4,v1,1319,966,1920,1080,5-15-2023,10-27-10,1,6,large,kitchen,toaster.png,misscaled,0,zi,bathroom,b1_zi.png,m,1,930,6,1,toaster.png,b1_zi.png,148672,278917,41,Man
853028,OSSe4,v1,1319,966,1920,1080,5-15-2023,10-27-10,1,7,small,bathroom,lipstick.png,misscaled,0,zo,kitchen,k2_zo.png,m,1,1001,7,5,lipstick.png,k2_zo.png,148672,278917,41,Man
853028,OSSe4,v1,1319,966,1920,1080,5-15-2023,10-27-10,1,8,small,kitchen,spoon.png,scaled,1,zi,kitchen,k1_zi.png,c,1,875,8,3,spoon.png,k1_zi.png,148672,278917,41,Man
853028,OSSe4,v1,1319,966,1920,1080,5-15-2023,10-27-10,1,9,large,classroom,computer.png,scaled,0,zo,kitchen,k5_zo.png,m,1,1309,9,3,computer.png,k5_zo.png,148672,278917,41,Man
853028,OSSe4,v1,1319,966,1920,1080,5-15-2023,10-27-10,1,10,large,bathroom,tissuebox.png,misscaled,1,zi,bathroom,b5_zi.png,c,1,993,10,1,tissuebox.png,b5_zi.png,148672,278917,41,Man
853028,OSSe4,v1,1319,966,1920,1080,5-15-2023,10-27-10,1,11,small,kitchen,saltshaker.png,misscaled,0,zo,bathroom,b5_zo.png,m,1,927,11,5,saltshaker.png,b5_zo.png,148672,278917,41,Man
853028,OSSe4,v1,1319,966,1920,1080,5-15-2023,10-27-10,1,12,large,bathroom,loofah.png,misscaled,1,zi,bathroom,b3_zi.png,c,1,1050,12,3,loofah.png,b3_zi.png,148672,278917,41,Man
853028,OSSe4,v1,1319,966,1920,1080,5-15-2023,10-27-10,1,13,small,laundromat,coins.png,scaled,0,zi,kitchen,k2_zi.png,m,1,825,13,5,coins.png,k2_zi.png,148672,278917,41,Man
853028,OSSe4,v1,1319,966,1920,1080,5-15-2023,10-27-10,1,14,small,classroom,paperclip.png,scaled,0,zi,laundromat,l0_zi.png,m,1,981,14,5,paperclip.png,l0_zi.png,148672,278917,41,Man
853028,OSSe4,v1,1319,966,1920,1080,5-15-2023,10-27-10,1,15,large,laundromat,shorts.png,scaled,0,zo,classroom,c1_zo.png,m,1,787,15,4,shorts.png,c1_zo.png,148672,278917,41,Man
771393,OSSe4,v1,1277,1225,1920,1080,5-15-2023,9-46-51,3,0,small,classroom,paperclip.png,scaled,0,zi,bathroom,b0_zi.png,m,1,1845,0,5,paperclip.png,b0_zi.png,103811,259635,30,Man
771393,OSSe4,v1,1277,1225,1920,1080,5-15-2023,9-46-51,3,1,small,bathroom,floss.png,scaled,1,zi,bathroom,b4_zi.png,c,1,1094,1,1,floss.png,b4_zi.png,103811,259635,30,Man
771393,OSSe4,v1,1277,1225,1920,1080,5-15-2023,9-46-51,3,2,large,bathroom,loofah.png,misscaled,0,zi,kitchen,k5_zi.png,m,1,1175,2,3,loofah.png,k5_zi.png,103811,259635,30,Man
771393,OSSe4,v1,1277,1225,1920,1080,5-15-2023,9-46-51,3,3,small,kitchen,saltshaker.png,misscaled,0,zo,bathroom,b2_zo.png,m,1,837,3,4,saltshaker.png,b2_zo.png,103811,259635,30,Man
771393,OSSe4,v1,1277,1225,1920,1080,5-15-2023,9-46-51,3,4,small,laundromat,coins.png,misscaled,1,zo,laundromat,l3_zo.png,c,1,915,4,5,coins.png,l3_zo.png,103811,259635,30,Man
771393,OSSe4,v1,1277,1225,1920,1080,5-15-2023,9-46-51,3,5,large,kitchen,pot.png,misscaled,1,zi,kitchen,k4_zi.png,c,1,794,5,2,pot.png,k4_zi.png,103811,259635,30,Man
771393,OSSe4,v1,1277,1225,1920,1080,5-15-2023,9-46-51,3,6,large,laundromat,shirt.png,scaled,1,zo,laundromat,l5_zo.png,c,1,730,6,3,shirt.png,l5_zo.png,103811,259635,30,Man
771393,OSSe4,v1,1277,1225,1920,1080,5-15-2023,9-46-51,3,7,large,kitchen,toaster.png,scaled,0,zo,bathroom,b0_zo.png,m,1,997,7,4,toaster.png,b0_zo.png,103811,259635,30,Man
771393,OSSe4,v1,1277,1225,1920,1080,5-15-2023,9-46-51,3,8,large,laundromat,shorts.png,scaled,1,zo,laundromat,l4_zo.png,c,1,923,8,4,shorts.png,l4_zo.png,103811,259635,30,Man
771393,OSSe4,v1,1277,1225,1920,1080,5-15-2023,9-46-51,3,9,large,laundromat,detergent.png,scaled,0,zo,classroom,c2_zo.png,m,1,804,9,4,detergent.png,c2_zo.png,103811,259635,30,Man
771393,OSSe4,v1,1277,1225,1920,1080,5-15-2023,9-46-51,3,10,small,kitchen,sponge.png,scaled,1,zi,kitchen,k3_zi.png,c,1,785,10,4,sponge.png,k3_zi.png,103811,259635,30,Man
771393,OSSe4,v1,1277,1225,1920,1080,5-15-2023,9-46-51,3,11,small,kitchen,spoon.png,misscaled,0,zo,bathroom,b1_zo.png,m,1,688,11,3,spoon.png,b1_zo.png,103811,259635,30,Man
771393,OSSe4,v1,1277,1225,1920,1080,5-15-2023,9-46-51,3,12,small,bathroom,nailclipper.png,misscaled,1,zo,bathroom,b4_zo.png,m,0,815,12,5,nailclipper.png,b4_zo.png,103811,259635,30,Man
771393,OSSe4,v1,1277,1225,1920,1080,5-15-2023,9-46-51,3,13,large,classroom,clipboard.png,misscaled,1,zi,classroom,c3_zi.png,c,1,1309,13,1,clipboard.png,c3_zi.png,103811,259635,30,Man
771393,OSSe4,v1,1277,1225,1920,1080,5-15-2023,9-46-51,3,14,large,kitchen,kettle.png,misscaled,0,zi,classroom,c4_zi.png,m,1,994,14,1,kettle.png,c4_zi.png,103811,259635,30,Man
771393,OSSe4,v1,1277,1225,1920,1080,5-15-2023,9-46-51,3,15,small,classroom,binderclip.png,scaled,0,zi,laundromat,l0_zi.png,m,1,1290,15,3,binderclip.png,l0_zi.png,103811,259635,30,Man
668428,OSSe4,v1,1920,937,1920,1080,5-15-2023,10-20-6,1,0,large,laundromat,detergent.png,misscaled,1,zi,laundromat,l2_zi.png,c,1,1206,0,2,detergent.png,l2_zi.png,134017,211184,34,None of these describe me
668428,OSSe4,v1,1920,937,1920,1080,5-15-2023,10-20-6,1,1,small,classroom,paperclip.png,misscaled,0,zo,laundromat,l5_zo.png,c,0,1027,1,5,paperclip.png,l5_zo.png,134017,211184,34,None of these describe me
668428,OSSe4,v1,1920,937,1920,1080,5-15-2023,10-20-6,1,2,small,bathroom,lipstick.png,scaled,0,zi,kitchen,k2_zi.png,m,1,1139,2,3,lipstick.png,k2_zi.png,134017,211184,34,None of these describe me
668428,OSSe4,v1,1920,937,1920,1080,5-15-2023,10-20-6,1,3,large,classroom,notebook.png,misscaled,0,zi,laundromat,l4_zi.png,m,1,962,3,2,notebook.png,l4_zi.png,134017,211184,34,None of these describe me
668428,OSSe4,v1,1920,937,1920,1080,5-15-2023,10-20-6,1,4,large,kitchen,toaster.png,scaled,0,zo,classroom,c2_zo.png,m,1,1072,4,4,toaster.png,c2_zo.png,134017,211184,34,None of these describe me
668428,OSSe4,v1,1920,937,1920,1080,5-15-2023,10-20-6,1,5,large,bathroom,hairdryer.png,misscaled,0,zi,laundromat,l0_zi.png,c,0,1196,5,2,hairdryer.png,l0_zi.png,134017,211184,34,None of these describe me
668428,OSSe4,v1,1920,937,1920,1080,5-15-2023,10-20-6,1,7,small,classroom,binderclip.png,misscaled,1,zo,classroom,c1_zo.png,c,1,979,7,5,binderclip.png,c1_zo.png,134017,211184,34,None of these describe me
668428,OSSe4,v1,1920,937,1920,1080,5-15-2023,10-20-6,1,8,large,laundromat,shorts.png,scaled,1,zo,laundromat,l1_zo.png,c,1,822,8,4,shorts.png,l1_zo.png,134017,211184,34,None of these describe me
668428,OSSe4,v1,1920,937,1920,1080,5-15-2023,10-20-6,1,9,large,laundromat,shirt.png,scaled,0,zo,bathroom,b1_zo.png,m,1,1545,9,3,shirt.png,b1_zo.png,134017,211184,34,None of these describe me
668428,OSSe4,v1,1920,937,1920,1080,5-15-2023,10-20-6,1,10,small,laundromat,coins.png,scaled,1,zi,laundromat,l3_zi.png,c,1,1048,10,5,coins.png,l3_zi.png,134017,211184,34,None of these describe me
668428,OSSe4,v1,1920,937,1920,1080,5-15-2023,10-20-6,1,11,large,classroom,computer.png,misscaled,1,zi,classroom,c1_zi.png,c,1,879,11,1,computer.png,c1_zi.png,134017,211184,34,None of these describe me
668428,OSSe4,v1,1920,937,1920,1080,5-15-2023,10-20-6,1,12,small,classroom,eraser.png,misscaled,0,zo,kitchen,k1_zo.png,m,1,1147,12,5,eraser.png,k1_zo.png,134017,211184,34,None of these describe me
668428,OSSe4,v1,1920,937,1920,1080,5-15-2023,10-20-6,1,13,small,laundromat,tidepod.png,scaled,1,zi,laundromat,l5_zi.png,c,1,826,13,5,tidepod.png,l5_zi.png,134017,211184,34,None of these describe me
668428,OSSe4,v1,1920,937,1920,1080,5-15-2023,10-20-6,1,14,small,laundromat,socks.png,misscaled,1,zo,laundromat,l0_zo.png,c,1,691,14,3,socks.png,l0_zo.png,134017,211184,34,None of these describe me
668428,OSSe4,v1,1920,937,1920,1080,5-15-2023,10-20-6,1,15,large,kitchen,pot.png,scaled,1,zo,kitchen,k4_zo.png,c,1,751,15,3,pot.png,k4_zo.png,134017,211184,34,None of these describe me
886732,OSSe4,v1,1405,928,1920,1080,5-15-2023,10-47-35,2,0,small,classroom,binderclip.png,misscaled,1,zo,classroom,c4_zo.png,c,1,925,0,5,binderclip.png,c4_zo.png,151368,306645,58,Woman
886732,OSSe4,v1,1405,928,1920,1080,5-15-2023,10-47-35,2,1,small,bathroom,lipstick.png,scaled,0,zi,kitchen,k1_zi.png,m,1,1030,1,4,lipstick.png,k1_zi.png,151368,306645,58,Woman
886732,OSSe4,v1,1405,928,1920,1080,5-15-2023,10-47-35,2,2,large,kitchen,toaster.png,scaled,0,zo,classroom,c2_zo.png,m,1,1069,2,3,toaster.png,c2_zo.png,151368,306645,58,Woman
886732,OSSe4,v1,1405,928,1920,1080,5-15-2023,10-47-35,2,3,large,kitchen,kettle.png,misscaled,0,zi,classroom,c0_zi.png,m,1,934,3,1,kettle.png,c0_zi.png,151368,306645,58,Woman
886732,OSSe4,v1,1405,928,1920,1080,5-15-2023,10-47-35,2,4,large,laundromat,shorts.png,scaled,1,zo,laundromat,l3_zo.png,c,1,1129,4,3,shorts.png,l3_zo.png,151368,306645,58,Woman
886732,OSSe4,v1,1405,928,1920,1080,5-15-2023,10-47-35,2,5,large,bathroom,hairdryer.png,misscaled,0,zi,classroom,c3_zi.png,m,1,1283,5,1,hairdryer.png,c3_zi.png,151368,306645,58,Woman
886732,OSSe4,v1,1405,928,1920,1080,5-15-2023,10-47-35,2,6,small,classroom,eraser.png,scaled,0,zi,laundromat,l2_zi.png,m,1,907,6,4,eraser.png,l2_zi.png,151368,306645,58,Woman
886732,OSSe4,v1,1405,928,1920,1080,5-15-2023,10-47-35,2,7,small,classroom,paperclip.png,scaled,1,zi,classroom,c2_zi.png,c,1,973,7,3,paperclip.png,c2_zi.png,151368,306645,58,Woman
886732,OSSe4,v1,1405,928,1920,1080,5-15-2023,10-47-35,2,8,large,kitchen,pot.png,scaled,0,zo,bathroom,b4_zo.png,m,1,953,8,4,pot.png,b4_zo.png,151368,306645,58,Woman
886732,OSSe4,v1,1405,928,1920,1080,5-15-2023,10-47-35,2,9,large,classroom,notebook.png,scaled,1,zo,classroom,c3_zo.png,c,1,1027,9,3,notebook.png,c3_zo.png,151368,306645,58,Woman
886732,OSSe4,v1,1405,928,1920,1080,5-15-2023,10-47-35,2,10,small,bathroom,nailclipper.png,scaled,1,zi,bathroom,b0_zi.png,c,1,1187,10,3,nailclipper.png,b0_zi.png,151368,306645,58,Woman
886732,OSSe4,v1,1405,928,1920,1080,5-15-2023,10-47-35,2,11,small,bathroom,floss.png,misscaled,0,zo,laundromat,l2_zo.png,m,1,770,11,5,floss.png,l2_zo.png,151368,306645,58,Woman
886732,OSSe4,v1,1405,928,1920,1080,5-15-2023,10-47-35,2,12,small,kitchen,saltshaker.png,misscaled,1,zo,kitchen,k4_zo.png,c,1,831,12,5,saltshaker.png,k4_zo.png,151368,306645,58,Woman
886732,OSSe4,v1,1405,928,1920,1080,5-15-2023,10-47-35,2,13,small,laundromat,tidepod.png,misscaled,0,zo,bathroom,b1_zo.png,c,0,1080,13,4,tidepod.png,b1_zo.png,151368,306645,58,Woman
886732,OSSe4,v1,1405,928,1920,1080,5-15-2023,10-47-35,2,14,large,laundromat,detergent.png,misscaled,1,zi,laundromat,l1_zi.png,c,1,838,14,1,detergent.png,l1_zi.png,151368,306645,58,Woman
886732,OSSe4,v1,1405,928,1920,1080,5-15-2023,10-47-35,2,15,large,laundromat,shirt.png,misscaled,1,zi,laundromat,l3_zi.png,c,1,751,15,1,shirt.png,l3_zi.png,151368,306645,58,Woman
822842,OSSe4,v1,1920,929,1920,1080,5-15-2023,11-1-36,1,0,large,kitchen,kettle.png,misscaled,1,zi,kitchen,k5_zi.png,c,1,1160,0,2,kettle.png,k5_zi.png,128964,222096,36,Man
822842,OSSe4,v1,1920,929,1920,1080,5-15-2023,11-1-36,1,1,small,laundromat,tidepod.png,scaled,0,zi,kitchen,k2_zi.png,m,1,845,1,5,tidepod.png,k2_zi.png,128964,222096,36,Man
822842,OSSe4,v1,1920,929,1920,1080,5-15-2023,11-1-36,1,2,small,bathroom,floss.png,misscaled,0,zo,classroom,c1_zo.png,m,1,885,2,5,floss.png,c1_zo.png,128964,222096,36,Man
822842,OSSe4,v1,1920,929,1920,1080,5-15-2023,11-1-36,1,3,small,bathroom,nailclipper.png,misscaled,1,zo,bathroom,b3_zo.png,c,1,1140,3,5,nailclipper.png,b3_zo.png,128964,222096,36,Man
822842,OSSe4,v1,1920,929,1920,1080,5-15-2023,11-1-36,1,4,large,laundromat,shirt.png,misscaled,0,zi,classroom,c3_zi.png,c,0,809,4,1,shirt.png,c3_zi.png,128964,222096,36,Man
822842,OSSe4,v1,1920,929,1920,1080,5-15-2023,11-1-36,1,5,small,kitchen,spoon.png,misscaled,1,zo,kitchen,k0_zo.png,c,1,663,5,5,spoon.png,k0_zo.png,128964,222096,36,Man
822842,OSSe4,v1,1920,929,1920,1080,5-15-2023,11-1-36,1,6,large,kitchen,toaster.png,misscaled,1,zi,kitchen,k4_zi.png,c,1,684,6,1,toaster.png,k4_zi.png,128964,222096,36,Man
822842,OSSe4,v1,1920,929,1920,1080,5-15-2023,11-1-36,1,7,small,classroom,paperclip.png,scaled,1,zi,classroom,c5_zi.png,c,1,838,7,5,paperclip.png,c5_zi.png,128964,222096,36,Man
822842,OSSe4,v1,1920,929,1920,1080,5-15-2023,11-1-36,1,8,large,laundromat,shorts.png,scaled,0,zo,classroom,c4_zo.png,m,1,816,8,1,shorts.png,c4_zo.png,128964,222096,36,Man
822842,OSSe4,v1,1920,929,1920,1080,5-15-2023,11-1-36,1,9,large,bathroom,hairdryer.png,scaled,1,zo,bathroom,b5_zo.png,c,1,689,9,4,hairdryer.png,b5_zo.png,128964,222096,36,Man
822842,OSSe4,v1,1920,929,1920,1080,5-15-2023,11-1-36,1,10,small,classroom,binderclip.png,misscaled,0,zo,laundromat,l2_zo.png,m,1,688,10,5,binderclip.png,l2_zo.png,128964,222096,36,Man
822842,OSSe4,v1,1920,929,1920,1080,5-15-2023,11-1-36,1,11,large,classroom,notebook.png,scaled,1,zo,classroom,c5_zo.png,c,1,792,11,5,notebook.png,c5_zo.png,128964,222096,36,Man
822842,OSSe4,v1,1920,929,1920,1080,5-15-2023,11-1-36,1,12,large,kitchen,pot.png,misscaled,0,zi,bathroom,b2_zi.png,m,1,738,12,1,pot.png,b2_zi.png,128964,222096,36,Man
822842,OSSe4,v1,1920,929,1920,1080,5-15-2023,11-1-36,1,13,small,bathroom,lipstick.png,scaled,1,zi,bathroom,b3_zi.png,c,1,710,13,4,lipstick.png,b3_zi.png,128964,222096,36,Man
822842,OSSe4,v1,1920,929,1920,1080,5-15-2023,11-1-36,1,14,small,laundromat,coins.png,scaled,0,zi,kitchen,k0_zi.png,m,1,612,14,5,coins.png,k0_zi.png,128964,222096,36,Man
822842,OSSe4,v1,1920,929,1920,1080,5-15-2023,11-1-36,1,15,large,classroom,clipboard.png,scaled,0,zo,bathroom,b1_zo.png,m,1,652,15,2,clipboard.png,b1_zo.png,128964,222096,36,Man
708548,OSSe4,v1,1536,722,1536,864,5-15-2023,8-4-36,1,0,large,bathroom,tissuebox.png,scaled,0,zo,classroom,c2_zo.png,c,0,924,0,4,tissuebox.png,c2_zo.png,292684,785217,48,Woman
708548,OSSe4,v1,1536,722,1536,864,5-15-2023,8-4-36,1,1,large,laundromat,detergent.png,misscaled,0,zi,kitchen,k0_zi.png,c,0,1106,1,3,detergent.png,k0_zi.png,292684,785217,48,Woman
708548,OSSe4,v1,1536,722,1536,864,5-15-2023,8-4-36,1,2,small,kitchen,sponge.png,scaled,1,zi,kitchen,k2_zi.png,c,1,1100,2,3,sponge.png,k2_zi.png,292684,785217,48,Woman
708548,OSSe4,v1,1536,722,1536,864,5-15-2023,8-4-36,1,3,small,laundromat,socks.png,scaled,0,zi,kitchen,k4_zi.png,m,1,921,3,2,socks.png,k4_zi.png,292684,785217,48,Woman
708548,OSSe4,v1,1536,722,1536,864,5-15-2023,8-4-36,1,4,large,classroom,notebook.png,scaled,0,zo,laundromat,l2_zo.png,c,0,1424,4,3,notebook.png,l2_zo.png,292684,785217,48,Woman
708548,OSSe4,v1,1536,722,1536,864,5-15-2023,8-4-36,1,5,small,kitchen,spoon.png,scaled,1,zi,kitchen,k5_zi.png,c,1,948,5,2,spoon.png,k5_zi.png,292684,785217,48,Woman
708548,OSSe4,v1,1536,722,1536,864,5-15-2023,8-4-36,1,6,small,laundromat,tidepod.png,misscaled,0,zo,bathroom,b1_zo.png,c,0,1362,6,5,tidepod.png,b1_zo.png,292684,785217,48,Woman
708548,OSSe4,v1,1536,722,1536,864,5-15-2023,8-4-36,1,7,large,classroom,computer.png,misscaled,0,zi,kitchen,k1_zi.png,m,1,1092,7,1,computer.png,k1_zi.png,292684,785217,48,Woman
708548,OSSe4,v1,1536,722,1536,864,5-15-2023,8-4-36,1,8,large,kitchen,toaster.png,misscaled,1,zi,kitchen,k3_zi.png,c,1,830,8,2,toaster.png,k3_zi.png,292684,785217,48,Woman
708548,OSSe4,v1,1536,722,1536,864,5-15-2023,8-4-36,1,9,large,bathroom,hairdryer.png,misscaled,1,zi,bathroom,b5_zi.png,c,1,1009,9,3,hairdryer.png,b5_zi.png,292684,785217,48,Woman
708548,OSSe4,v1,1536,722,1536,864,5-15-2023,8-4-36,1,10,small,classroom,binderclip.png,misscaled,1,zo,classroom,c3_zo.png,c,1,842,10,5,binderclip.png,c3_zo.png,292684,785217,48,Woman
708548,OSSe4,v1,1536,722,1536,864,5-15-2023,8-4-36,1,11,small,classroom,eraser.png,scaled,0,zi,laundromat,l1_zi.png,m,1,909,11,5,eraser.png,l1_zi.png,292684,785217,48,Woman
708548,OSSe4,v1,1536,722,1536,864,5-15-2023,8-4-36,1,12,small,classroom,paperclip.png,misscaled,1,zo,classroom,c5_zo.png,c,1,851,12,4,paperclip.png,c5_zo.png,292684,785217,48,Woman
708548,OSSe4,v1,1536,722,1536,864,5-15-2023,8-4-36,1,13,small,bathroom,lipstick.png,misscaled,0,zo,kitchen,k3_zo.png,m,1,943,13,5,lipstick.png,k3_zo.png,292684,785217,48,Woman
708548,OSSe4,v1,1536,722,1536,864,5-15-2023,8-4-36,1,14,large,laundromat,shirt.png,scaled,1,zo,laundromat,l4_zo.png,c,1,748,14,3,shirt.png,l4_zo.png,292684,785217,48,Woman
708548,OSSe4,v1,1536,722,1536,864,5-15-2023,8-4-36,1,15,large,classroom,clipboard.png,scaled,1,zo,classroom,c4_zo.png,c,1,799,15,4,clipboard.png,c4_zo.png,292684,785217,48,Woman
792763,OSSe4,v1,1746,875,1746,982,5-15-2023,10-47-48,2,0,small,kitchen,spoon.png,scaled,1,zi,kitchen,k4_zi.png,c,1,1890,0,2,spoon.png,k4_zi.png,187158,352641,43,Woman
792763,OSSe4,v1,1746,875,1746,982,5-15-2023,10-47-48,2,1,large,laundromat,detergent.png,misscaled,0,zi,kitchen,k3_zi.png,m,1,1325,1,1,detergent.png,k3_zi.png,187158,352641,43,Woman
792763,OSSe4,v1,1746,875,1746,982,5-15-2023,10-47-48,2,2,small,laundromat,tidepod.png,misscaled,0,zo,bathroom,b3_zo.png,m,1,1623,2,4,tidepod.png,b3_zo.png,187158,352641,43,Woman
792763,OSSe4,v1,1746,875,1746,982,5-15-2023,10-47-48,2,3,large,bathroom,loofah.png,misscaled,1,zi,bathroom,b1_zi.png,m,0,1678,3,4,loofah.png,b1_zi.png,187158,352641,43,Woman
792763,OSSe4,v1,1746,875,1746,982,5-15-2023,10-47-48,2,4,small,classroom,binderclip.png,scaled,0,zi,bathroom,b2_zi.png,m,1,1049,4,5,binderclip.png,b2_zi.png,187158,352641,43,Woman
792763,OSSe4,v1,1746,875,1746,982,5-15-2023,10-47-48,2,5,large,classroom,notebook.png,misscaled,1,zi,classroom,c5_zi.png,c,1,964,5,1,notebook.png,c5_zi.png,187158,352641,43,Woman
792763,OSSe4,v1,1746,875,1746,982,5-15-2023,10-47-48,2,6,large,kitchen,pot.png,scaled,0,zo,classroom,c4_zo.png,m,1,1316,6,1,pot.png,c4_zo.png,187158,352641,43,Woman
792763,OSSe4,v1,1746,875,1746,982,5-15-2023,10-47-48,2,7,large,classroom,computer.png,scaled,1,zo,classroom,c1_zo.png,c,1,1677,7,3,computer.png,c1_zo.png,187158,352641,43,Woman
792763,OSSe4,v1,1746,875,1746,982,5-15-2023,10-47-48,2,8,small,kitchen,sponge.png,misscaled,1,zo,kitchen,k3_zo.png,c,1,992,8,5,sponge.png,k3_zo.png,187158,352641,43,Woman
792763,OSSe4,v1,1746,875,1746,982,5-15-2023,10-47-48,2,9,small,laundromat,socks.png,scaled,1,zi,laundromat,l4_zi.png,c,1,956,9,3,socks.png,l4_zi.png,187158,352641,43,Woman
792763,OSSe4,v1,1746,875,1746,982,5-15-2023,10-47-48,2,10,large,classroom,clipboard.png,misscaled,0,zi,kitchen,k1_zi.png,m,1,1051,10,2,clipboard.png,k1_zi.png,187158,352641,43,Woman
792763,OSSe4,v1,1746,875,1746,982,5-15-2023,10-47-48,2,11,small,kitchen,saltshaker.png,scaled,0,zi,laundromat,l5_zi.png,m,1,919,11,4,saltshaker.png,l5_zi.png,187158,352641,43,Woman
792763,OSSe4,v1,1746,875,1746,982,5-15-2023,10-47-48,2,12,small,laundromat,coins.png,misscaled,1,zo,laundromat,l2_zo.png,c,1,1067,12,5,coins.png,l2_zo.png,187158,352641,43,Woman
792763,OSSe4,v1,1746,875,1746,982,5-15-2023,10-47-48,2,13,small,classroom,eraser.png,misscaled,0,zo,kitchen,k5_zo.png,m,1,1008,13,5,eraser.png,k5_zo.png,187158,352641,43,Woman
792763,OSSe4,v1,1746,875,1746,982,5-15-2023,10-47-48,2,14,large,bathroom,hairdryer.png,scaled,0,zo,laundromat,l1_zo.png,m,1,1118,14,5,hairdryer.png,l1_zo.png,187158,352641,43,Woman
792763,OSSe4,v1,1746,875,1746,982,5-15-2023,10-47-48,2,15,large,laundromat,shorts.png,scaled,1,zo,laundromat,l3_zo.png,c,1,907,15,4,shorts.png,l3_zo.png,187158,352641,43,Woman
614362,OSSe4,v1,1536,794,1536,864,5-15-2023,11-12-19,1,0,large,bathroom,tissuebox.png,scaled,1,zo,bathroom,b5_zo.png,c,1,697,0,3,tissuebox.png,b5_zo.png,124478,320142,29,Man
614362,OSSe4,v1,1536,794,1536,864,5-15-2023,11-12-19,1,1,small,bathroom,floss.png,scaled,1,zi,bathroom,b4_zi.png,c,1,1035,1,4,floss.png,b4_zi.png,124478,320142,29,Man
614362,OSSe4,v1,1536,794,1536,864,5-15-2023,11-12-19,1,2,small,kitchen,sponge.png,misscaled,1,zo,kitchen,k3_zo.png,c,1,575,2,3,sponge.png,k3_zo.png,124478,320142,29,Man
614362,OSSe4,v1,1536,794,1536,864,5-15-2023,11-12-19,1,3,large,kitchen,kettle.png,scaled,0,zo,classroom,c3_zo.png,c,0,630,3,3,kettle.png,c3_zo.png,124478,320142,29,Man
614362,OSSe4,v1,1536,794,1536,864,5-15-2023,11-12-19,1,4,large,laundromat,detergent.png,misscaled,0,zi,classroom,c2_zi.png,m,1,1140,4,2,detergent.png,c2_zi.png,124478,320142,29,Man
614362,OSSe4,v1,1536,794,1536,864,5-15-2023,11-12-19,1,5,large,classroom,notebook.png,scaled,1,zo,classroom,c2_zo.png,c,1,887,5,3,notebook.png,c2_zo.png,124478,320142,29,Man
614362,OSSe4,v1,1536,794,1536,864,5-15-2023,11-12-19,1,6,large,kitchen,pot.png,scaled,0,zo,laundromat,l0_zo.png,m,1,1100,6,2,pot.png,l0_zo.png,124478,320142,29,Man
614362,OSSe4,v1,1536,794,1536,864,5-15-2023,11-12-19,1,7,large,laundromat,shorts.png,misscaled,1,zi,laundromat,l4_zi.png,c,1,780,7,2,shorts.png,l4_zi.png,124478,320142,29,Man
614362,OSSe4,v1,1536,794,1536,864,5-15-2023,11-12-19,1,8,small,laundromat,tidepod.png,scaled,1,zi,laundromat,l5_zi.png,c,1,917,8,2,tidepod.png,l5_zi.png,124478,320142,29,Man
614362,OSSe4,v1,1536,794,1536,864,5-15-2023,11-12-19,1,9,small,bathroom,lipstick.png,misscaled,1,zo,bathroom,b2_zo.png,c,1,1299,9,2,lipstick.png,b2_zo.png,124478,320142,29,Man
614362,OSSe4,v1,1536,794,1536,864,5-15-2023,11-12-19,1,10,small,bathroom,nailclipper.png,scaled,0,zi,laundromat,l2_zi.png,m,1,942,10,3,nailclipper.png,l2_zi.png,124478,320142,29,Man
614362,OSSe4,v1,1536,794,1536,864,5-15-2023,11-12-19,1,11,small,kitchen,saltshaker.png,misscaled,0,zo,bathroom,b1_zo.png,m,1,832,11,3,saltshaker.png,b1_zo.png,124478,320142,29,Man
614362,OSSe4,v1,1536,794,1536,864,5-15-2023,11-12-19,1,12,large,bathroom,hairdryer.png,misscaled,1,zi,bathroom,b2_zi.png,c,1,1295,12,1,hairdryer.png,b2_zi.png,124478,320142,29,Man
614362,OSSe4,v1,1536,794,1536,864,5-15-2023,11-12-19,1,13,small,laundromat,coins.png,scaled,0,zi,classroom,c3_zi.png,m,1,907,13,4,coins.png,c3_zi.png,124478,320142,29,Man
614362,OSSe4,v1,1536,794,1536,864,5-15-2023,11-12-19,1,14,large,laundromat,shirt.png,misscaled,0,zi,kitchen,k4_zi.png,m,1,1015,14,1,shirt.png,k4_zi.png,124478,320142,29,Man
614362,OSSe4,v1,1536,794,1536,864,5-15-2023,11-12-19,1,15,small,classroom,paperclip.png,misscaled,0,zo,laundromat,l1_zo.png,m,1,912,15,2,paperclip.png,l1_zo.png,124478,320142,29,Man
302293,OSSe4,v1,1920,927,1920,1080,5-15-2023,10-16-52,1,0,small,laundromat,coins.png,misscaled,1,zo,laundromat,l0_zo.png,c,1,807,0,5,coins.png,l0_zo.png,108565,173968,29,Woman
302293,OSSe4,v1,1920,927,1920,1080,5-15-2023,10-16-52,1,1,small,laundromat,socks.png,scaled,1,zi,laundromat,l2_zi.png,m,0,931,1,4,socks.png,l2_zi.png,108565,173968,29,Woman
302293,OSSe4,v1,1920,927,1920,1080,5-15-2023,10-16-52,1,2,large,laundromat,shorts.png,scaled,0,zo,classroom,c5_zo.png,m,1,851,2,4,shorts.png,c5_zo.png,108565,173968,29,Woman
302293,OSSe4,v1,1920,927,1920,1080,5-15-2023,10-16-52,1,3,large,classroom,notebook.png,misscaled,1,zi,classroom,c2_zi.png,c,1,663,3,1,notebook.png,c2_zi.png,108565,173968,29,Woman
302293,OSSe4,v1,1920,927,1920,1080,5-15-2023,10-16-52,1,4,large,kitchen,pot.png,misscaled,1,zi,kitchen,k0_zi.png,c,1,668,4,1,pot.png,k0_zi.png,108565,173968,29,Woman
302293,OSSe4,v1,1920,927,1920,1080,5-15-2023,10-16-52,1,5,large,bathroom,loofah.png,scaled,0,zo,laundromat,l4_zo.png,m,1,974,5,5,loofah.png,l4_zo.png,108565,173968,29,Woman
302293,OSSe4,v1,1920,927,1920,1080,5-15-2023,10-16-52,1,6,small,laundromat,tidepod.png,scaled,1,zi,laundromat,l1_zi.png,c,1,722,6,5,tidepod.png,l1_zi.png,108565,173968,29,Woman
302293,OSSe4,v1,1920,927,1920,1080,5-15-2023,10-16-52,1,7,small,classroom,binderclip.png,scaled,0,zi,laundromat,l0_zi.png,m,1,756,7,5,binderclip.png,l0_zi.png,108565,173968,29,Woman
302293,OSSe4,v1,1920,927,1920,1080,5-15-2023,10-16-52,1,8,large,classroom,clipboard.png,misscaled,0,zi,kitchen,k4_zi.png,m,1,637,8,2,clipboard.png,k4_zi.png,108565,173968,29,Woman
302293,OSSe4,v1,1920,927,1920,1080,5-15-2023,10-16-52,1,9,large,bathroom,hairdryer.png,scaled,1,zo,bathroom,b5_zo.png,c,1,770,9,4,hairdryer.png,b5_zo.png,108565,173968,29,Woman
302293,OSSe4,v1,1920,927,1920,1080,5-15-2023,10-16-52,1,10,small,bathroom,lipstick.png,misscaled,0,zo,classroom,c2_zo.png,m,1,690,10,5,lipstick.png,c2_zo.png,108565,173968,29,Woman
302293,OSSe4,v1,1920,927,1920,1080,5-15-2023,10-16-52,1,11,large,kitchen,kettle.png,misscaled,0,zi,classroom,c1_zi.png,m,1,642,11,1,kettle.png,c1_zi.png,108565,173968,29,Woman
302293,OSSe4,v1,1920,927,1920,1080,5-15-2023,10-16-52,1,12,small,classroom,eraser.png,misscaled,0,zo,bathroom,b0_zo.png,m,1,939,12,5,eraser.png,b0_zo.png,108565,173968,29,Woman
302293,OSSe4,v1,1920,927,1920,1080,5-15-2023,10-16-52,1,13,large,laundromat,detergent.png,scaled,1,zo,laundromat,l5_zo.png,c,1,755,13,4,detergent.png,l5_zo.png,108565,173968,29,Woman
302293,OSSe4,v1,1920,927,1920,1080,5-15-2023,10-16-52,1,14,small,kitchen,spoon.png,misscaled,1,zo,kitchen,k3_zo.png,c,1,756,14,5,spoon.png,k3_zo.png,108565,173968,29,Woman
302293,OSSe4,v1,1920,927,1920,1080,5-15-2023,10-16-52,1,15,small,classroom,paperclip.png,scaled,0,zi,laundromat,l4_zi.png,m,1,637,15,5,paperclip.png,l4_zi.png,108565,173968,29,Woman
248126,OSSe4,v1,1525,611,1525,750,5-15-2023,8-15-38,2,0,large,bathroom,loofah.png,misscaled,0,zi,classroom,c0_zi.png,m,1,1162,0,3,loofah.png,c0_zi.png,124065,250154,37,Woman
248126,OSSe4,v1,1525,611,1525,750,5-15-2023,8-15-38,2,1,large,laundromat,shorts.png,misscaled,1,zi,laundromat,l3_zi.png,m,0,819,1,2,shorts.png,l3_zi.png,124065,250154,37,Woman
248126,OSSe4,v1,1525,611,1525,750,5-15-2023,8-15-38,2,2,large,classroom,computer.png,misscaled,1,zi,classroom,c3_zi.png,c,1,1090,2,1,computer.png,c3_zi.png,124065,250154,37,Woman
248126,OSSe4,v1,1525,611,1525,750,5-15-2023,8-15-38,2,3,small,bathroom,floss.png,scaled,0,zi,kitchen,k2_zi.png,m,1,855,3,1,floss.png,k2_zi.png,124065,250154,37,Woman
248126,OSSe4,v1,1525,611,1525,750,5-15-2023,8-15-38,2,4,small,kitchen,spoon.png,scaled,1,zi,kitchen,k5_zi.png,c,1,864,4,3,spoon.png,k5_zi.png,124065,250154,37,Woman
248126,OSSe4,v1,1525,611,1525,750,5-15-2023,8-15-38,2,5,large,bathroom,tissuebox.png,scaled,1,zo,bathroom,b4_zo.png,c,1,795,5,3,tissuebox.png,b4_zo.png,124065,250154,37,Woman
248126,OSSe4,v1,1525,611,1525,750,5-15-2023,8-15-38,2,6,small,laundromat,socks.png,misscaled,0,zo,classroom,c4_zo.png,m,1,897,6,3,socks.png,c4_zo.png,124065,250154,37,Woman
248126,OSSe4,v1,1525,611,1525,750,5-15-2023,8-15-38,2,7,large,bathroom,hairdryer.png,scaled,0,zo,classroom,c2_zo.png,m,1,890,7,3,hairdryer.png,c2_zo.png,124065,250154,37,Woman
248126,OSSe4,v1,1525,611,1525,750,5-15-2023,8-15-38,2,8,large,kitchen,pot.png,scaled,0,zo,classroom,c0_zo.png,m,1,860,8,3,pot.png,c0_zo.png,124065,250154,37,Woman
248126,OSSe4,v1,1525,611,1525,750,5-15-2023,8-15-38,2,9,large,laundromat,shirt.png,scaled,1,zo,laundromat,l3_zo.png,c,1,750,9,1,shirt.png,l3_zo.png,124065,250154,37,Woman
248126,OSSe4,v1,1525,611,1525,750,5-15-2023,8-15-38,2,10,small,laundromat,coins.png,misscaled,0,zo,kitchen,k3_zo.png,m,1,901,10,3,coins.png,k3_zo.png,124065,250154,37,Woman
248126,OSSe4,v1,1525,611,1525,750,5-15-2023,8-15-38,2,11,small,bathroom,lipstick.png,scaled,0,zi,laundromat,l4_zi.png,m,1,796,11,4,lipstick.png,l4_zi.png,124065,250154,37,Woman
248126,OSSe4,v1,1525,611,1525,750,5-15-2023,8-15-38,2,12,small,laundromat,tidepod.png,scaled,1,zi,laundromat,l1_zi.png,m,0,953,12,4,tidepod.png,l1_zi.png,124065,250154,37,Woman
248126,OSSe4,v1,1525,611,1525,750,5-15-2023,8-15-38,2,13,small,bathroom,nailclipper.png,misscaled,1,zo,bathroom,b2_zo.png,c,1,1032,13,5,nailclipper.png,b2_zo.png,124065,250154,37,Woman
248126,OSSe4,v1,1525,611,1525,750,5-15-2023,8-15-38,2,14,large,kitchen,kettle.png,misscaled,0,zi,classroom,c4_zi.png,m,1,788,14,3,kettle.png,c4_zi.png,124065,250154,37,Woman
248126,OSSe4,v1,1525,611,1525,750,5-15-2023,8-15-38,2,15,small,classroom,paperclip.png,misscaled,1,zo,classroom,c3_zo.png,m,0,903,15,5,paperclip.png,c3_zo.png,124065,250154,37,Woman
752428,OSSe4,v1,2215,1070,2240,1260,5-15-2023,11-32-42,1,0,small,kitchen,sponge.png,misscaled,1,zo,kitchen,k4_zo.png,c,1,1527,0,5,sponge.png,k4_zo.png,204716,490946,55,Woman
752428,OSSe4,v1,2215,1070,2240,1260,5-15-2023,11-32-42,1,1,small,bathroom,nailclipper.png,misscaled,0,zo,classroom,c5_zo.png,m,1,1027,1,5,nailclipper.png,c5_zo.png,204716,490946,55,Woman
752428,OSSe4,v1,2215,1070,2240,1260,5-15-2023,11-32-42,1,2,large,kitchen,pot.png,misscaled,1,zi,kitchen,k0_zi.png,c,1,983,2,2,pot.png,k0_zi.png,204716,490946,55,Woman
752428,OSSe4,v1,2215,1070,2240,1260,5-15-2023,11-32-42,1,3,small,laundromat,tidepod.png,scaled,1,zi,laundromat,l4_zi.png,c,1,959,3,4,tidepod.png,l4_zi.png,204716,490946,55,Woman
752428,OSSe4,v1,2215,1070,2240,1260,5-15-2023,11-32-42,1,4,large,classroom,clipboard.png,scaled,0,zo,bathroom,b2_zo.png,m,1,752,4,2,clipboard.png,b2_zo.png,204716,490946,55,Woman
752428,OSSe4,v1,2215,1070,2240,1260,5-15-2023,11-32-42,1,5,large,bathroom,hairdryer.png,misscaled,0,zi,laundromat,l5_zi.png,m,1,1286,5,3,hairdryer.png,l5_zi.png,204716,490946,55,Woman
752428,OSSe4,v1,2215,1070,2240,1260,5-15-2023,11-32-42,1,6,small,laundromat,coins.png,scaled,1,zi,laundromat,l2_zi.png,m,0,743,6,5,coins.png,l2_zi.png,204716,490946,55,Woman
752428,OSSe4,v1,2215,1070,2240,1260,5-15-2023,11-32-42,1,7,large,kitchen,kettle.png,scaled,1,zo,kitchen,k0_zo.png,c,1,1176,7,3,kettle.png,k0_zo.png,204716,490946,55,Woman
752428,OSSe4,v1,2215,1070,2240,1260,5-15-2023,11-32-42,1,8,small,classroom,eraser.png,scaled,0,zi,kitchen,k1_zi.png,m,1,830,8,5,eraser.png,k1_zi.png,204716,490946,55,Woman
752428,OSSe4,v1,2215,1070,2240,1260,5-15-2023,11-32-42,1,9,small,kitchen,saltshaker.png,scaled,0,zi,bathroom,b1_zi.png,m,1,1026,9,3,saltshaker.png,b1_zi.png,204716,490946,55,Woman
752428,OSSe4,v1,2215,1070,2240,1260,5-15-2023,11-32-42,1,10,large,bathroom,tissuebox.png,scaled,0,zo,laundromat,l5_zo.png,m,1,924,10,4,tissuebox.png,l5_zo.png,204716,490946,55,Woman
752428,OSSe4,v1,2215,1070,2240,1260,5-15-2023,11-32-42,1,11,small,classroom,paperclip.png,misscaled,1,zo,classroom,c1_zo.png,c,1,913,11,5,paperclip.png,c1_zo.png,204716,490946,55,Woman
752428,OSSe4,v1,2215,1070,2240,1260,5-15-2023,11-32-42,1,12,large,kitchen,toaster.png,misscaled,1,zi,kitchen,k3_zi.png,c,1,980,12,1,toaster.png,k3_zi.png,204716,490946,55,Woman
752428,OSSe4,v1,2215,1070,2240,1260,5-15-2023,11-32-42,1,13,small,classroom,binderclip.png,misscaled,0,zo,bathroom,b3_zo.png,m,1,806,13,5,binderclip.png,b3_zo.png,204716,490946,55,Woman
752428,OSSe4,v1,2215,1070,2240,1260,5-15-2023,11-32-42,1,14,large,classroom,computer.png,misscaled,0,zi,kitchen,k2_zi.png,m,1,963,14,1,computer.png,k2_zi.png,204716,490946,55,Woman
752428,OSSe4,v1,2215,1070,2240,1260,5-15-2023,11-32-42,1,15,large,bathroom,loofah.png,scaled,1,zo,bathroom,b5_zo.png,c,1,867,15,4,loofah.png,b5_zo.png,204716,490946,55,Woman
695798,OSSe4,v1,1881,888,1920,1080,5-15-2023,11-47-24,1,0,small,laundromat,tidepod.png,misscaled,0,zo,bathroom,b1_zo.png,m,1,1505,0,4,tidepod.png,b1_zo.png,107674,229169,40,Man
695798,OSSe4,v1,1881,888,1920,1080,5-15-2023,11-47-24,1,1,large,laundromat,shorts.png,misscaled,1,zi,laundromat,l1_zi.png,c,1,1081,1,1,shorts.png,l1_zi.png,107674,229169,40,Man
695798,OSSe4,v1,1881,888,1920,1080,5-15-2023,11-47-24,1,2,small,laundromat,socks.png,scaled,0,zi,kitchen,k1_zi.png,m,1,828,2,3,socks.png,k1_zi.png,107674,229169,40,Man
695798,OSSe4,v1,1881,888,1920,1080,5-15-2023,11-47-24,1,3,small,bathroom,lipstick.png,scaled,1,zi,bathroom,b4_zi.png,m,0,924,3,3,lipstick.png,b4_zi.png,107674,229169,40,Man
695798,OSSe4,v1,1881,888,1920,1080,5-15-2023,11-47-24,1,4,small,classroom,paperclip.png,scaled,1,zi,classroom,c0_zi.png,c,1,834,4,5,paperclip.png,c0_zi.png,107674,229169,40,Man
695798,OSSe4,v1,1881,888,1920,1080,5-15-2023,11-47-24,1,5,large,bathroom,loofah.png,scaled,1,zo,bathroom,b5_zo.png,c,1,784,5,4,loofah.png,b5_zo.png,107674,229169,40,Man
695798,OSSe4,v1,1881,888,1920,1080,5-15-2023,11-47-24,1,6,large,bathroom,hairdryer.png,scaled,1,zo,bathroom,b4_zo.png,c,1,739,6,4,hairdryer.png,b4_zo.png,107674,229169,40,Man
695798,OSSe4,v1,1881,888,1920,1080,5-15-2023,11-47-24,1,7,large,laundromat,shirt.png,misscaled,0,zi,classroom,c4_zi.png,m,1,616,7,1,shirt.png,c4_zi.png,107674,229169,40,Man
695798,OSSe4,v1,1881,888,1920,1080,5-15-2023,11-47-24,1,8,small,kitchen,sponge.png,misscaled,1,zo,kitchen,k5_zo.png,c,1,862,8,3,sponge.png,k5_zo.png,107674,229169,40,Man
695798,OSSe4,v1,1881,888,1920,1080,5-15-2023,11-47-24,1,9,small,kitchen,spoon.png,scaled,0,zi,classroom,c3_zi.png,m,1,663,9,2,spoon.png,c3_zi.png,107674,229169,40,Man
695798,OSSe4,v1,1881,888,1920,1080,5-15-2023,11-47-24,1,10,small,laundromat,coins.png,misscaled,1,zo,laundromat,l5_zo.png,c,1,780,10,4,coins.png,l5_zo.png,107674,229169,40,Man
695798,OSSe4,v1,1881,888,1920,1080,5-15-2023,11-47-24,1,11,large,classroom,clipboard.png,scaled,0,zo,bathroom,b0_zo.png,m,1,707,11,2,clipboard.png,b0_zo.png,107674,229169,40,Man
695798,OSSe4,v1,1881,888,1920,1080,5-15-2023,11-47-24,1,12,large,classroom,computer.png,scaled,0,zo,kitchen,k3_zo.png,m,1,718,12,2,computer.png,k3_zo.png,107674,229169,40,Man
695798,OSSe4,v1,1881,888,1920,1080,5-15-2023,11-47-24,1,13,small,kitchen,saltshaker.png,misscaled,0,zo,bathroom,b3_zo.png,m,1,695,13,4,saltshaker.png,b3_zo.png,107674,229169,40,Man
695798,OSSe4,v1,1881,888,1920,1080,5-15-2023,11-47-24,1,14,large,kitchen,pot.png,misscaled,1,zi,kitchen,k5_zi.png,c,1,742,14,1,pot.png,k5_zi.png,107674,229169,40,Man
695798,OSSe4,v1,1881,888,1920,1080,5-15-2023,11-47-24,1,15,large,bathroom,tissuebox.png,misscaled,0,zi,kitchen,k2_zi.png,m,1,667,15,1,tissuebox.png,k2_zi.png,107674,229169,40,Man
978841,OSSe4,v1,1536,714,1536,864,5-15-2023,10-46-21,1,0,large,kitchen,kettle.png,misscaled,1,zi,kitchen,k2_zi.png,c,1,942,0,2,kettle.png,k2_zi.png,111048,182335,29,Woman
978841,OSSe4,v1,1536,714,1536,864,5-15-2023,10-46-21,1,1,large,laundromat,shorts.png,scaled,1,zo,laundromat,l0_zo.png,c,1,875,1,2,shorts.png,l0_zo.png,111048,182335,29,Woman
978841,OSSe4,v1,1536,714,1536,864,5-15-2023,10-46-21,1,2,large,kitchen,toaster.png,scaled,0,zo,bathroom,b5_zo.png,m,1,786,2,3,toaster.png,b5_zo.png,111048,182335,29,Woman
978841,OSSe4,v1,1536,714,1536,864,5-15-2023,10-46-21,1,3,small,laundromat,tidepod.png,misscaled,1,zo,laundromat,l4_zo.png,c,1,811,3,5,tidepod.png,l4_zo.png,111048,182335,29,Woman
978841,OSSe4,v1,1536,714,1536,864,5-15-2023,10-46-21,1,4,small,classroom,eraser.png,scaled,1,zi,classroom,c1_zi.png,c,1,881,4,4,eraser.png,c1_zi.png,111048,182335,29,Woman
978841,OSSe4,v1,1536,714,1536,864,5-15-2023,10-46-21,1,5,small,kitchen,saltshaker.png,scaled,1,zi,kitchen,k0_zi.png,c,1,784,5,3,saltshaker.png,k0_zi.png,111048,182335,29,Woman
978841,OSSe4,v1,1536,714,1536,864,5-15-2023,10-46-21,1,6,small,kitchen,spoon.png,scaled,0,zi,classroom,c4_zi.png,m,1,1243,6,1,spoon.png,c4_zi.png,111048,182335,29,Woman
978841,OSSe4,v1,1536,714,1536,864,5-15-2023,10-46-21,1,7,large,kitchen,pot.png,scaled,1,zo,kitchen,k1_zo.png,c,1,776,7,4,pot.png,k1_zo.png,111048,182335,29,Woman
978841,OSSe4,v1,1536,714,1536,864,5-15-2023,10-46-21,1,8,large,laundromat,detergent.png,misscaled,1,zi,laundromat,l3_zi.png,c,1,795,8,1,detergent.png,l3_zi.png,111048,182335,29,Woman
978841,OSSe4,v1,1536,714,1536,864,5-15-2023,10-46-21,1,9,large,laundromat,shirt.png,scaled,0,zo,bathroom,b1_zo.png,c,0,888,9,2,shirt.png,b1_zo.png,111048,182335,29,Woman
978841,OSSe4,v1,1536,714,1536,864,5-15-2023,10-46-21,1,10,small,bathroom,floss.png,misscaled,0,zo,laundromat,l2_zo.png,c,0,1269,10,5,floss.png,l2_zo.png,111048,182335,29,Woman
978841,OSSe4,v1,1536,714,1536,864,5-15-2023,10-46-21,1,11,large,classroom,notebook.png,misscaled,0,zi,kitchen,k4_zi.png,m,1,817,11,1,notebook.png,k4_zi.png,111048,182335,29,Woman
978841,OSSe4,v1,1536,714,1536,864,5-15-2023,10-46-21,1,12,small,kitchen,sponge.png,misscaled,0,zo,classroom,c4_zo.png,m,1,1095,12,2,sponge.png,c4_zo.png,111048,182335,29,Woman
978841,OSSe4,v1,1536,714,1536,864,5-15-2023,10-46-21,1,13,small,classroom,paperclip.png,misscaled,1,zo,classroom,c2_zo.png,c,1,693,13,5,paperclip.png,c2_zo.png,111048,182335,29,Woman
978841,OSSe4,v1,1536,714,1536,864,5-15-2023,10-46-21,1,14,large,classroom,computer.png,misscaled,0,zi,laundromat,l2_zi.png,m,1,1153,14,1,computer.png,l2_zi.png,111048,182335,29,Woman
978841,OSSe4,v1,1536,714,1536,864,5-15-2023,10-46-21,1,15,small,bathroom,nailclipper.png,scaled,0,zi,kitchen,k3_zi.png,m,1,879,15,4,nailclipper.png,k3_zi.png,111048,182335,29,Woman
717865,OSSe4,v1,1196,525,1366,768,5-15-2023,10-51-24,2,0,large,kitchen,kettle.png,scaled,1,zo,kitchen,k2_zo.png,c,1,1410,0,1,kettle.png,k2_zo.png,94835,186395,35,Man
717865,OSSe4,v1,1196,525,1366,768,5-15-2023,10-51-24,2,1,large,classroom,computer.png,misscaled,0,zi,bathroom,b1_zi.png,m,1,749,1,5,computer.png,b1_zi.png,94835,186395,35,Man
717865,OSSe4,v1,1196,525,1366,768,5-15-2023,10-51-24,2,4,large,laundromat,shorts.png,scaled,0,zo,bathroom,b2_zo.png,m,1,1428,4,3,shorts.png,b2_zo.png,94835,186395,35,Man
717865,OSSe4,v1,1196,525,1366,768,5-15-2023,10-51-24,2,5,large,kitchen,toaster.png,misscaled,1,zi,kitchen,k3_zi.png,c,1,1095,5,4,toaster.png,k3_zi.png,94835,186395,35,Man
717865,OSSe4,v1,1196,525,1366,768,5-15-2023,10-51-24,2,6,small,kitchen,spoon.png,scaled,0,zi,laundromat,l3_zi.png,c,0,691,6,2,spoon.png,l3_zi.png,94835,186395,35,Man
717865,OSSe4,v1,1196,525,1366,768,5-15-2023,10-51-24,2,7,small,kitchen,sponge.png,misscaled,1,zo,kitchen,k3_zo.png,c,1,760,7,5,sponge.png,k3_zo.png,94835,186395,35,Man
717865,OSSe4,v1,1196,525,1366,768,5-15-2023,10-51-24,2,8,small,classroom,binderclip.png,misscaled,0,zo,kitchen,k0_zo.png,m,1,1104,8,4,binderclip.png,k0_zo.png,94835,186395,35,Man
717865,OSSe4,v1,1196,525,1366,768,5-15-2023,10-51-24,2,9,small,kitchen,saltshaker.png,scaled,1,zi,kitchen,k1_zi.png,c,1,733,9,1,saltshaker.png,k1_zi.png,94835,186395,35,Man
717865,OSSe4,v1,1196,525,1366,768,5-15-2023,10-51-24,2,10,large,bathroom,loofah.png,misscaled,0,zi,laundromat,l5_zi.png,m,1,753,10,2,loofah.png,l5_zi.png,94835,186395,35,Man
717865,OSSe4,v1,1196,525,1366,768,5-15-2023,10-51-24,2,11,large,laundromat,shirt.png,scaled,1,zo,laundromat,l1_zo.png,c,1,1330,11,2,shirt.png,l1_zo.png,94835,186395,35,Man
717865,OSSe4,v1,1196,525,1366,768,5-15-2023,10-51-24,2,12,small,classroom,paperclip.png,scaled,1,zi,classroom,c1_zi.png,c,1,1063,12,4,paperclip.png,c1_zi.png,94835,186395,35,Man
717865,OSSe4,v1,1196,525,1366,768,5-15-2023,10-51-24,2,13,large,kitchen,pot.png,misscaled,1,zi,kitchen,k0_zi.png,c,1,703,13,5,pot.png,k0_zi.png,94835,186395,35,Man
717865,OSSe4,v1,1196,525,1366,768,5-15-2023,10-51-24,2,14,small,laundromat,socks.png,misscaled,1,zo,laundromat,l2_zo.png,c,1,1486,14,4,socks.png,l2_zo.png,94835,186395,35,Man
717865,OSSe4,v1,1196,525,1366,768,5-15-2023,10-51-24,2,15,small,bathroom,nailclipper.png,misscaled,0,zo,kitchen,k1_zo.png,m,1,701,15,2,nailclipper.png,k1_zo.png,94835,186395,35,Man
675379,OSSe4,v1,1408,1286,2560,1440,5-15-2023,10-46-45,1,0,small,bathroom,lipstick.png,misscaled,0,zo,classroom,c2_zo.png,m,1,1191,0,5,lipstick.png,c2_zo.png,128719,214817,55,Man
675379,OSSe4,v1,1408,1286,2560,1440,5-15-2023,10-46-45,1,1,large,bathroom,tissuebox.png,scaled,0,zo,laundromat,l1_zo.png,m,1,1493,1,5,tissuebox.png,l1_zo.png,128719,214817,55,Man
675379,OSSe4,v1,1408,1286,2560,1440,5-15-2023,10-46-45,1,2,large,bathroom,hairdryer.png,scaled,0,zo,laundromat,l3_zo.png,m,1,1330,2,5,hairdryer.png,l3_zo.png,128719,214817,55,Man
675379,OSSe4,v1,1408,1286,2560,1440,5-15-2023,10-46-45,1,3,large,bathroom,loofah.png,misscaled,1,zi,bathroom,b2_zi.png,c,1,1132,3,3,loofah.png,b2_zi.png,128719,214817,55,Man
675379,OSSe4,v1,1408,1286,2560,1440,5-15-2023,10-46-45,1,4,large,kitchen,toaster.png,misscaled,0,zi,classroom,c5_zi.png,m,1,1032,4,1,toaster.png,c5_zi.png,128719,214817,55,Man
675379,OSSe4,v1,1408,1286,2560,1440,5-15-2023,10-46-45,1,5,small,bathroom,nailclipper.png,misscaled,1,zo,bathroom,b0_zo.png,m,0,1198,5,5,nailclipper.png,b0_zo.png,128719,214817,55,Man
675379,OSSe4,v1,1408,1286,2560,1440,5-15-2023,10-46-45,1,6,small,bathroom,floss.png,misscaled,1,zo,bathroom,b5_zo.png,c,1,1539,6,5,floss.png,b5_zo.png,128719,214817,55,Man
675379,OSSe4,v1,1408,1286,2560,1440,5-15-2023,10-46-45,1,7,small,laundromat,socks.png,scaled,0,zi,kitchen,k5_zi.png,m,1,1364,7,2,socks.png,k5_zi.png,128719,214817,55,Man
675379,OSSe4,v1,1408,1286,2560,1440,5-15-2023,10-46-45,1,8,small,classroom,eraser.png,scaled,1,zi,classroom,c4_zi.png,c,1,1406,8,4,eraser.png,c4_zi.png,128719,214817,55,Man
675379,OSSe4,v1,1408,1286,2560,1440,5-15-2023,10-46-45,1,9,large,classroom,clipboard.png,scaled,1,zo,classroom,c1_zo.png,c,1,980,9,3,clipboard.png,c1_zo.png,128719,214817,55,Man
675379,OSSe4,v1,1408,1286,2560,1440,5-15-2023,10-46-45,1,10,large,kitchen,pot.png,misscaled,1,zi,kitchen,k0_zi.png,c,1,981,10,1,pot.png,k0_zi.png,128719,214817,55,Man
675379,OSSe4,v1,1408,1286,2560,1440,5-15-2023,10-46-45,1,11,small,kitchen,spoon.png,scaled,1,zi,kitchen,k4_zi.png,c,1,1256,11,3,spoon.png,k4_zi.png,128719,214817,55,Man
675379,OSSe4,v1,1408,1286,2560,1440,5-15-2023,10-46-45,1,12,small,kitchen,saltshaker.png,misscaled,0,zo,laundromat,l2_zo.png,m,1,1071,12,5,saltshaker.png,l2_zo.png,128719,214817,55,Man
675379,OSSe4,v1,1408,1286,2560,1440,5-15-2023,10-46-45,1,13,large,classroom,computer.png,scaled,1,zo,classroom,c4_zo.png,c,1,1332,13,1,computer.png,c4_zo.png,128719,214817,55,Man
675379,OSSe4,v1,1408,1286,2560,1440,5-15-2023,10-46-45,1,14,small,laundromat,coins.png,scaled,0,zi,bathroom,b1_zi.png,m,1,1376,14,5,coins.png,b1_zi.png,128719,214817,55,Man
675379,OSSe4,v1,1408,1286,2560,1440,5-15-2023,10-46-45,1,15,large,classroom,notebook.png,misscaled,0,zi,laundromat,l5_zi.png,m,1,1459,15,3,notebook.png,l5_zi.png,128719,214817,55,Man
534247,OSSe4,v1,1588,1395,1920,1080,5-15-2023,11-20-27,1,0,large,classroom,clipboard.png,scaled,1,zo,classroom,c1_zo.png,c,1,1348,0,2,clipboard.png,c1_zo.png,123556,181731,24,Woman
534247,OSSe4,v1,1588,1395,1920,1080,5-15-2023,11-20-27,1,1,small,bathroom,floss.png,misscaled,0,zo,classroom,c5_zo.png,m,1,1407,1,3,floss.png,c5_zo.png,123556,181731,24,Woman
534247,OSSe4,v1,1588,1395,1920,1080,5-15-2023,11-20-27,1,2,large,laundromat,shorts.png,scaled,0,zo,classroom,c3_zo.png,m,1,1160,2,1,shorts.png,c3_zo.png,123556,181731,24,Woman
534247,OSSe4,v1,1588,1395,1920,1080,5-15-2023,11-20-27,1,3,small,classroom,paperclip.png,misscaled,1,zo,classroom,c0_zo.png,c,1,1151,3,3,paperclip.png,c0_zo.png,123556,181731,24,Woman
534247,OSSe4,v1,1588,1395,1920,1080,5-15-2023,11-20-27,1,4,small,classroom,binderclip.png,misscaled,0,zo,laundromat,l2_zo.png,m,1,1022,4,2,binderclip.png,l2_zo.png,123556,181731,24,Woman
534247,OSSe4,v1,1588,1395,1920,1080,5-15-2023,11-20-27,1,5,small,classroom,eraser.png,scaled,0,zi,kitchen,k2_zi.png,m,1,1374,5,3,eraser.png,k2_zi.png,123556,181731,24,Woman
534247,OSSe4,v1,1588,1395,1920,1080,5-15-2023,11-20-27,1,6,large,kitchen,toaster.png,scaled,0,zo,classroom,c4_zo.png,m,1,915,6,1,toaster.png,c4_zo.png,123556,181731,24,Woman
534247,OSSe4,v1,1588,1395,1920,1080,5-15-2023,11-20-27,1,7,small,bathroom,lipstick.png,misscaled,1,zo,bathroom,b0_zo.png,c,1,1447,7,4,lipstick.png,b0_zo.png,123556,181731,24,Woman
534247,OSSe4,v1,1588,1395,1920,1080,5-15-2023,11-20-27,1,8,large,kitchen,pot.png,scaled,1,zo,kitchen,k2_zo.png,c,1,854,8,2,pot.png,k2_zo.png,123556,181731,24,Woman
534247,OSSe4,v1,1588,1395,1920,1080,5-15-2023,11-20-27,1,9,large,laundromat,detergent.png,misscaled,0,zi,classroom,c2_zi.png,m,1,1062,9,1,detergent.png,c2_zi.png,123556,181731,24,Woman
534247,OSSe4,v1,1588,1395,1920,1080,5-15-2023,11-20-27,1,10,large,bathroom,hairdryer.png,misscaled,1,zi,bathroom,b1_zi.png,c,1,974,10,2,hairdryer.png,b1_zi.png,123556,181731,24,Woman
534247,OSSe4,v1,1588,1395,1920,1080,5-15-2023,11-20-27,1,11,large,laundromat,shirt.png,misscaled,0,zi,classroom,c5_zi.png,m,1,765,11,1,shirt.png,c5_zi.png,123556,181731,24,Woman
534247,OSSe4,v1,1588,1395,1920,1080,5-15-2023,11-20-27,1,12,small,bathroom,nailclipper.png,scaled,1,zi,bathroom,b3_zi.png,m,0,1557,12,3,nailclipper.png,b3_zi.png,123556,181731,24,Woman
534247,OSSe4,v1,1588,1395,1920,1080,5-15-2023,11-20-27,1,13,large,kitchen,kettle.png,misscaled,1,zi,kitchen,k5_zi.png,c,1,843,13,1,kettle.png,k5_zi.png,123556,181731,24,Woman
534247,OSSe4,v1,1588,1395,1920,1080,5-15-2023,11-20-27,1,14,small,laundromat,socks.png,scaled,0,zi,classroom,c1_zi.png,m,1,768,14,1,socks.png,c1_zi.png,123556,181731,24,Woman
534247,OSSe4,v1,1588,1395,1920,1080,5-15-2023,11-20-27,1,15,small,kitchen,spoon.png,scaled,1,zi,kitchen,k4_zi.png,c,1,1383,15,1,spoon.png,k4_zi.png,123556,181731,24,Woman
