subjID,experimentName,versionName,windowWidth,Z-Scored RT,windowHeight,screenWidth,screenHeight,startDate,startTime,pracTries,trialNum,objectSize,objectCategory,s2_misscaled,misscaled,object,objectScene1SemanticCongruency,scene1ZoomName,scene1Category,scene1,scene2SizeCong,scene2SemCong,scene2ZoomName,scene2Category,scene2,keyPress,accuracy,RT,experimentTime,totalTime,age,gender
747317,OSS,v7,1536,-0.08194931645997289,722,1536,864,2-16-2023,14-10-37,2,0,small,kitchen,misscaled,misscaled,sponge.png,0,zo,classroom,c1_zo.png,1,1,zo,classroom,c4_zo.png,c,1,838,65856,272145,40,Woman
747317,OSS,v7,1536,-0.029177001216399018,722,1536,864,2-16-2023,14-10-37,2,1,small,kitchen,scaled,scaled,saltshaker.png,1,zi,kitchen,k3_zi.png,1,0,zi,bathroom,b0_zi.png,c,0,851,65856,272145,40,Woman
747317,OSS,v7,1536,0.5147837866789009,722,1536,864,2-16-2023,14-10-37,2,2,large,laundromat,misscaled,scaled,detergent.png,1,zo,laundromat,l4_zo.png,0,1,zi,laundromat,l3_zi.png,c,1,985,65856,272145,40,Woman
747317,OSS,v7,1536,-0.44729611430009975,722,1536,864,2-16-2023,14-10-37,2,3,small,classroom,misscaled,misscaled,paperclip.png,1,zo,classroom,c0_zo.png,1,0,zo,kitchen,k1_zo.png,c,0,748,65856,272145,40,Woman
747317,OSS,v7,1536,-0.34581089267784226,722,1536,864,2-16-2023,14-10-37,2,4,small,classroom,misscaled,scaled,binderclip.png,1,zi,classroom,c5_zi.png,0,0,zo,kitchen,k4_zo.png,m,1,773,65856,272145,40,Woman
747317,OSS,v7,1536,0.4214173827864241,722,1536,864,2-16-2023,14-10-37,2,5,small,classroom,scaled,misscaled,eraser.png,1,zo,classroom,c5_zo.png,0,0,zi,kitchen,k1_zi.png,m,1,962,65856,272145,40,Woman
747317,OSS,v7,1536,-0.0616522721355214,722,1536,864,2-16-2023,14-10-37,2,6,large,laundromat,misscaled,misscaled,shirt.png,0,zi,bathroom,b2_zi.png,1,1,zi,bathroom,b5_zi.png,c,1,843,65856,272145,40,Woman
747317,OSS,v7,1536,-0.5081872472734542,722,1536,864,2-16-2023,14-10-37,2,7,small,bathroom,scaled,scaled,floss.png,0,zi,kitchen,k2_zi.png,1,0,zi,classroom,c4_zi.png,m,1,733,65856,272145,40,Woman
747317,OSS,v7,1536,-0.5447219270574669,722,1536,864,2-16-2023,14-10-37,2,8,large,classroom,misscaled,misscaled,powerstrip.png,1,zi,classroom,c1_zi.png,1,0,zi,laundromat,l1_zi.png,m,1,724,65856,272145,40,Woman
747317,OSS,v7,1536,-0.8248211387348975,722,1536,864,2-16-2023,14-10-37,2,9,large,bathroom,misscaled,scaled,tissuebox.png,0,zo,kitchen,k2_zo.png,0,0,zi,laundromat,l4_zi.png,m,1,655,65856,272145,40,Woman
747317,OSS,v7,1536,-0.16313749375777886,722,1536,864,2-16-2023,14-10-37,2,10,large,bathroom,misscaled,misscaled,loofah.png,0,zi,laundromat,l0_zi.png,1,0,zi,kitchen,k0_zi.png,m,1,818,65856,272145,40,Woman
747317,OSS,v7,1536,-0.16313749375777886,722,1536,864,2-16-2023,14-10-37,2,11,large,kitchen,misscaled,scaled,pot.png,1,zo,kitchen,k0_zo.png,0,1,zi,kitchen,k5_zi.png,c,1,818,65856,272145,40,Woman
747317,OSS,v7,1536,-0.8897716805731423,722,1536,864,2-16-2023,14-10-37,2,12,small,kitchen,scaled,misscaled,spoon.png,0,zo,laundromat,l5_zo.png,0,1,zi,laundromat,l2_zi.png,c,1,639,65856,272145,40,Woman
747317,OSS,v7,1536,0.7218136387883062,722,1536,864,2-16-2023,14-10-37,2,13,small,laundromat,misscaled,scaled,coins.png,0,zi,bathroom,b3_zi.png,0,1,zo,bathroom,b0_zo.png,c,1,1036,65856,272145,40,Woman
747317,OSS,v7,1536,-0.8897716805731423,722,1536,864,2-16-2023,14-10-37,2,14,large,bathroom,scaled,scaled,hairdryer.png,0,zo,laundromat,l1_zo.png,1,0,zo,classroom,c3_zo.png,c,0,639,65856,272145,40,Woman
747317,OSS,v7,1536,3.2914194502638647,722,1536,864,2-16-2023,14-10-37,2,15,large,kitchen,scaled,misscaled,kettle.png,1,zi,kitchen,k4_zi.png,0,1,zo,kitchen,k3_zo.png,c,1,1669,65856,272145,40,Woman
468374,OSS,v7,1536,0.9506808626631033,714,1536,864,2-15-2023,11-51-57,1,0,large,bathroom,misscaled,scaled,loofah.png,1,zo,bathroom,b5_zo.png,0,1,zi,bathroom,b0_zi.png,c,1,1462,71341,204793,40,Man
468374,OSS,v7,1536,-0.12487370871030215,714,1536,864,2-15-2023,11-51-57,1,1,large,laundromat,scaled,misscaled,shorts.png,0,zi,bathroom,b3_zi.png,0,0,zo,kitchen,k1_zo.png,m,1,1167,71341,204793,40,Man
468374,OSS,v7,1536,0.061069623967812,714,1536,864,2-15-2023,11-51-57,1,2,small,kitchen,misscaled,scaled,spoon.png,1,zi,kitchen,k4_zi.png,0,1,zo,kitchen,k2_zo.png,m,0,1218,71341,204793,40,Man
468374,OSS,v7,1536,2.9304304635300835,714,1536,864,2-15-2023,11-51-57,1,3,small,kitchen,scaled,misscaled,sponge.png,0,zo,laundromat,l1_zo.png,0,0,zi,bathroom,b1_zi.png,none,0,2005,71341,204793,40,Man
468374,OSS,v7,1536,-0.4092576292768297,714,1536,864,2-15-2023,11-51-57,1,4,large,kitchen,scaled,misscaled,toaster.png,0,zi,classroom,c1_zi.png,0,0,zo,laundromat,l0_zo.png,m,1,1089,71341,204793,40,Man
468374,OSS,v7,1536,-0.13581155180901475,714,1536,864,2-15-2023,11-51-57,1,5,small,classroom,scaled,scaled,binderclip.png,0,zi,laundromat,l2_zi.png,1,0,zi,bathroom,b2_zi.png,m,1,1164,71341,204793,40,Man
468374,OSS,v7,1536,1.2058972016330638,714,1536,864,2-15-2023,11-51-57,1,6,large,bathroom,misscaled,scaled,hairdryer.png,1,zo,bathroom,b1_zo.png,0,0,zi,laundromat,l4_zi.png,m,1,1532,71341,204793,40,Man
468374,OSS,v7,1536,-0.18320887190343602,714,1536,864,2-15-2023,11-51-57,1,7,large,classroom,scaled,scaled,computer.png,0,zo,bathroom,b3_zo.png,1,1,zo,bathroom,b2_zo.png,c,1,1151,71341,204793,40,Man
468374,OSS,v7,1536,0.23972106124678444,714,1536,864,2-15-2023,11-51-57,1,8,small,laundromat,misscaled,misscaled,socks.png,0,zo,classroom,c4_zo.png,1,1,zo,classroom,c5_zo.png,c,1,1267,71341,204793,40,Man
468374,OSS,v7,1536,-1.0983417444957233,714,1536,864,2-15-2023,11-51-57,1,9,small,classroom,scaled,misscaled,paperclip.png,1,zo,classroom,c3_zo.png,0,1,zi,classroom,c2_zi.png,c,1,900,71341,204793,40,Man
468374,OSS,v7,1536,-0.292587302890562,714,1536,864,2-15-2023,11-51-57,1,10,large,laundromat,misscaled,misscaled,detergent.png,1,zi,laundromat,l1_zi.png,1,1,zi,laundromat,l3_zi.png,c,1,1121,71341,204793,40,Man
468374,OSS,v7,1536,-0.5149901125643848,714,1536,864,2-15-2023,11-51-57,1,11,small,classroom,misscaled,scaled,eraser.png,0,zi,laundromat,l5_zi.png,0,1,zo,laundromat,l4_zo.png,c,1,1060,71341,204793,40,Man
468374,OSS,v7,1536,-1.0655282151995855,714,1536,864,2-15-2023,11-51-57,1,12,large,kitchen,scaled,misscaled,kettle.png,1,zi,kitchen,k5_zi.png,0,0,zo,classroom,c0_zo.png,c,0,909,71341,204793,40,Man
468374,OSS,v7,1536,-0.128519656409873,714,1536,864,2-15-2023,11-51-57,1,13,large,classroom,scaled,scaled,notebook.png,0,zo,kitchen,k4_zo.png,1,0,zo,bathroom,b0_zo.png,m,1,1166,71341,204793,40,Man
468374,OSS,v7,1536,-0.6170766481523691,714,1536,864,2-15-2023,11-51-57,1,14,small,bathroom,misscaled,scaled,lipstick.png,1,zi,bathroom,b5_zi.png,0,0,zo,classroom,c1_zo.png,m,1,1032,71341,204793,40,Man
468374,OSS,v7,1536,-0.8176037716287666,714,1536,864,2-15-2023,11-51-57,1,15,small,kitchen,scaled,misscaled,saltshaker.png,1,zo,kitchen,k5_zo.png,0,0,zi,laundromat,l0_zi.png,m,1,977,71341,204793,40,Man
964526,OSS,v7,1366,1.3423942769227792,625,1366,768,2-15-2023,12-13-47,1,0,large,bathroom,misscaled,misscaled,hairdryer.png,0,zi,kitchen,k2_zi.png,1,1,zi,kitchen,k3_zi.png,c,1,1289,69232,539248,39,Woman
964526,OSS,v7,1366,-0.8063171856055235,625,1366,768,2-15-2023,12-13-47,1,1,small,classroom,scaled,scaled,paperclip.png,1,zi,classroom,c3_zi.png,1,0,zi,laundromat,l2_zi.png,m,1,1045,69232,539248,39,Woman
964526,OSS,v7,1366,-0.21630215286209606,625,1366,768,2-15-2023,12-13-47,1,2,small,classroom,misscaled,scaled,eraser.png,1,zi,classroom,c2_zi.png,0,1,zo,classroom,c4_zo.png,c,1,1112,69232,539248,39,Woman
964526,OSS,v7,1366,-2.0479906127222884,625,1366,768,2-15-2023,12-13-47,1,3,small,laundromat,misscaled,scaled,coins.png,0,zi,classroom,c5_zi.png,0,0,zo,bathroom,b3_zo.png,m,1,904,69232,539248,39,Woman
964526,OSS,v7,1366,0.4793872141040348,625,1366,768,2-15-2023,12-13-47,1,4,large,bathroom,misscaled,scaled,tissuebox.png,0,zo,kitchen,k2_zo.png,0,0,zi,classroom,c4_zi.png,m,1,1191,69232,539248,39,Woman
964526,OSS,v7,1366,0.981340301661876,625,1366,768,2-15-2023,12-13-47,1,5,large,kitchen,misscaled,scaled,toaster.png,1,zo,kitchen,k3_zo.png,0,0,zi,laundromat,l1_zi.png,m,1,1248,69232,539248,39,Woman
964526,OSS,v7,1366,-0.2603331254548891,625,1366,768,2-15-2023,12-13-47,1,6,large,laundromat,scaled,scaled,shirt.png,0,zo,kitchen,k1_zo.png,1,1,zo,kitchen,k5_zo.png,c,1,1107,69232,539248,39,Woman
964526,OSS,v7,1366,-0.3307826816033581,625,1366,768,2-15-2023,12-13-47,1,7,small,classroom,misscaled,misscaled,binderclip.png,1,zo,classroom,c3_zo.png,1,0,zo,laundromat,l2_zo.png,m,1,1099,69232,539248,39,Woman
964526,OSS,v7,1366,-0.7710924075312889,625,1366,768,2-15-2023,12-13-47,1,8,large,classroom,misscaled,misscaled,notebook.png,1,zi,classroom,c0_zi.png,1,0,zi,bathroom,b3_zi.png,m,1,1049,69232,539248,39,Woman
964526,OSS,v7,1366,0.6819296880308829,625,1366,768,2-15-2023,12-13-47,1,9,small,kitchen,misscaled,misscaled,sponge.png,0,zo,bathroom,b5_zo.png,1,1,zo,bathroom,b1_zo.png,c,1,1214,69232,539248,39,Woman
964526,OSS,v7,1366,1.0870146358845794,625,1366,768,2-15-2023,12-13-47,1,10,small,kitchen,misscaled,scaled,spoon.png,0,zi,laundromat,l0_zi.png,0,0,zo,classroom,c2_zo.png,m,1,1260,69232,539248,39,Woman
964526,OSS,v7,1366,0.725960660623676,625,1366,768,2-15-2023,12-13-47,1,11,large,kitchen,misscaled,misscaled,pot.png,1,zi,kitchen,k0_zi.png,1,0,zi,laundromat,l4_zi.png,m,1,1219,69232,539248,39,Woman
964526,OSS,v7,1366,0.8492473838834967,625,1366,768,2-15-2023,12-13-47,1,12,large,laundromat,misscaled,scaled,shorts.png,1,zo,laundromat,l4_zo.png,0,0,zi,classroom,c1_zi.png,m,1,1233,69232,539248,39,Woman
964526,OSS,v7,1366,-0.8063171856055235,625,1366,768,2-15-2023,12-13-47,1,13,small,laundromat,misscaled,misscaled,tidepod.png,1,zo,laundromat,l0_zo.png,1,0,zo,classroom,c0_zo.png,m,1,1045,69232,539248,39,Woman
964526,OSS,v7,1366,0.6378987154380898,625,1366,768,2-15-2023,12-13-47,1,14,small,laundromat,scaled,misscaled,socks.png,0,zo,classroom,c5_zo.png,0,0,zi,bathroom,b5_zi.png,c,0,1209,69232,539248,39,Woman
964526,OSS,v7,1366,-1.5460375251644474,625,1366,768,2-15-2023,12-13-47,1,15,large,bathroom,scaled,misscaled,loofah.png,0,zi,kitchen,k1_zi.png,0,0,zo,classroom,c1_zo.png,m,1,961,69232,539248,39,Woman
826833,OSS,v7,1366,1.3423667658529859,657,1366,768,2-16-2023,12-40-57,2,0,large,classroom,misscaled,misscaled,powerstrip.png,0,zi,bathroom,b4_zi.png,1,1,zi,bathroom,b5_zi.png,c,1,988,63551,319486,40,Man
826833,OSS,v7,1366,-0.2734229065148068,657,1366,768,2-16-2023,12-40-57,2,1,large,laundromat,scaled,scaled,detergent.png,0,zo,bathroom,b4_zo.png,1,0,zo,classroom,c4_zo.png,m,1,735,63551,319486,40,Man
826833,OSS,v7,1366,-1.0781244824766323,657,1366,768,2-16-2023,12-40-57,2,2,large,laundromat,scaled,scaled,shirt.png,0,zo,classroom,c5_zo.png,1,1,zo,classroom,c3_zo.png,c,1,609,63551,319486,40,Man
826833,OSS,v7,1366,0.8122855689892435,657,1366,768,2-16-2023,12-40-57,2,3,small,laundromat,scaled,misscaled,tidepod.png,0,zo,kitchen,k3_zo.png,0,0,zi,bathroom,b0_zi.png,m,1,905,63551,319486,40,Man
826833,OSS,v7,1366,-0.03712165008157231,657,1366,768,2-16-2023,12-40-57,2,4,large,kitchen,misscaled,scaled,kettle.png,1,zo,kitchen,k1_zo.png,0,0,zi,laundromat,l2_zi.png,m,1,772,63551,319486,40,Man
826833,OSS,v7,1366,-1.2250144526918862,657,1366,768,2-16-2023,12-40-57,2,5,small,bathroom,scaled,scaled,floss.png,0,zi,laundromat,l4_zi.png,1,1,zi,laundromat,l5_zi.png,c,1,586,63551,319486,40,Man
826833,OSS,v7,1366,-0.4394724380624851,657,1366,768,2-16-2023,12-40-57,2,6,small,classroom,misscaled,scaled,paperclip.png,0,zi,laundromat,l3_zi.png,0,1,zo,laundromat,l0_zo.png,c,1,709,63551,319486,40,Man
826833,OSS,v7,1366,-1.4485426682368379,657,1366,768,2-16-2023,12-40-57,2,7,small,laundromat,scaled,scaled,coins.png,1,zi,laundromat,l0_zi.png,1,1,zi,laundromat,l1_zi.png,c,1,551,63551,319486,40,Man
826833,OSS,v7,1366,-0.6374545718308707,657,1366,768,2-16-2023,12-40-57,2,8,small,classroom,misscaled,misscaled,binderclip.png,0,zo,kitchen,k0_zo.png,1,0,zo,laundromat,l1_zo.png,m,1,678,63551,319486,40,Man
826833,OSS,v7,1366,1.6042141040627862,657,1366,768,2-16-2023,12-40-57,2,9,large,laundromat,misscaled,scaled,shorts.png,1,zo,laundromat,l2_zo.png,0,0,zi,bathroom,b2_zi.png,m,1,1029,63551,319486,40,Man
826833,OSS,v7,1366,-0.49695112205975833,657,1366,768,2-16-2023,12-40-57,2,10,small,laundromat,misscaled,misscaled,socks.png,1,zo,laundromat,l5_zo.png,1,1,zo,laundromat,l4_zo.png,c,1,700,63551,319486,40,Man
826833,OSS,v7,1366,0.30775045390206723,657,1366,768,2-16-2023,12-40-57,2,11,large,classroom,misscaled,misscaled,notebook.png,1,zi,classroom,c3_zi.png,1,1,zi,classroom,c5_zi.png,c,1,826,63551,319486,40,Man
826833,OSS,v7,1366,-0.6119084900543048,657,1366,768,2-16-2023,12-40-57,2,12,small,classroom,misscaled,misscaled,eraser.png,1,zo,classroom,c0_zo.png,1,0,zo,bathroom,b5_zo.png,m,1,682,63551,319486,40,Man
826833,OSS,v7,1366,-0.11375989541126998,657,1366,768,2-16-2023,12-40-57,2,13,large,kitchen,misscaled,misscaled,pot.png,0,zi,bathroom,b3_zi.png,1,0,zi,classroom,c0_zi.png,m,1,760,63551,319486,40,Man
826833,OSS,v7,1366,1.9107670853815768,657,1366,768,2-16-2023,12-40-57,2,14,small,bathroom,misscaled,scaled,lipstick.png,1,zi,bathroom,b1_zi.png,0,0,zo,kitchen,k2_zo.png,c,0,1077,63551,319486,40,Man
826833,OSS,v7,1366,0.3843886992317649,657,1366,768,2-16-2023,12-40-57,2,15,large,kitchen,scaled,misscaled,toaster.png,1,zi,kitchen,k0_zi.png,0,0,zo,classroom,c1_zo.png,m,1,838,63551,319486,40,Man
546965,OSS,v7,3840,0.41599257808314316,2009,3840,2160,2-15-2023,12-11-52,3,0,small,laundromat,scaled,scaled,tidepod.png,0,zi,kitchen,k3_zi.png,1,0,zi,bathroom,b4_zi.png,c,0,1316,70799,301394,47,Man
546965,OSS,v7,3840,-0.9067183220222406,2009,3840,2160,2-15-2023,12-11-52,3,1,large,bathroom,scaled,misscaled,hairdryer.png,1,zi,bathroom,b5_zi.png,0,1,zo,bathroom,b4_zo.png,c,1,1066,70799,301394,47,Man
546965,OSS,v7,3840,-0.7956106064133883,2009,3840,2160,2-15-2023,12-11-52,3,2,large,kitchen,misscaled,misscaled,pot.png,0,zi,classroom,c5_zi.png,1,0,zi,bathroom,b3_zi.png,m,1,1087,70799,301394,47,Man
546965,OSS,v7,3840,-1.1553879712420527,2009,3840,2160,2-15-2023,12-11-52,3,3,large,bathroom,misscaled,scaled,loofah.png,0,zo,classroom,c4_zo.png,0,0,zi,kitchen,k0_zi.png,m,1,1019,70799,301394,47,Man
546965,OSS,v7,3840,0.9715311561274044,2009,3840,2160,2-15-2023,12-11-52,3,4,large,laundromat,misscaled,scaled,shirt.png,1,zo,laundromat,l1_zo.png,0,0,zi,bathroom,b1_zi.png,m,1,1421,70799,301394,47,Man
546965,OSS,v7,3840,0.40012004728187855,2009,3840,2160,2-15-2023,12-11-52,3,5,small,classroom,scaled,misscaled,binderclip.png,0,zo,kitchen,k0_zo.png,0,1,zi,kitchen,k4_zi.png,c,1,1313,70799,301394,47,Man
546965,OSS,v7,3840,-1.0336985684323574,2009,3840,2160,2-15-2023,12-11-52,3,6,large,laundromat,misscaled,scaled,detergent.png,1,zo,laundromat,l5_zo.png,0,1,zi,laundromat,l4_zi.png,c,1,1042,70799,301394,47,Man
546965,OSS,v7,3840,1.3789261133598625,2009,3840,2160,2-15-2023,12-11-52,3,7,small,bathroom,scaled,scaled,nailclipper.png,1,zi,bathroom,b0_zi.png,1,0,zi,kitchen,k5_zi.png,m,1,1498,70799,301394,47,Man
546965,OSS,v7,3840,-1.3828942460601787,2009,3840,2160,2-15-2023,12-11-52,3,8,large,classroom,misscaled,misscaled,notebook.png,0,zi,laundromat,l2_zi.png,1,1,zi,laundromat,l5_zi.png,c,1,976,70799,301394,47,Man
546965,OSS,v7,3840,0.6964072889054845,2009,3840,2160,2-15-2023,12-11-52,3,9,small,kitchen,scaled,scaled,sponge.png,1,zi,kitchen,k1_zi.png,1,0,zi,laundromat,l1_zi.png,m,1,1369,70799,301394,47,Man
546965,OSS,v7,3840,-0.7585747012104376,2009,3840,2160,2-15-2023,12-11-52,3,10,small,laundromat,misscaled,misscaled,socks.png,1,zo,laundromat,l3_zo.png,1,1,zo,laundromat,l2_zo.png,c,1,1094,70799,301394,47,Man
546965,OSS,v7,3840,1.601141544577567,2009,3840,2160,2-15-2023,12-11-52,3,11,small,kitchen,misscaled,misscaled,saltshaker.png,1,zo,kitchen,k2_zo.png,1,1,zo,kitchen,k5_zo.png,c,1,1540,70799,301394,47,Man
546965,OSS,v7,3840,1.0720571845354134,2009,3840,2160,2-15-2023,12-11-52,3,12,large,laundromat,misscaled,scaled,shorts.png,0,zo,bathroom,b1_zo.png,0,1,zi,bathroom,b2_zi.png,c,1,1440,70799,301394,47,Man
546965,OSS,v7,3840,0.6964072889054845,2009,3840,2160,2-15-2023,12-11-52,3,13,small,classroom,misscaled,scaled,paperclip.png,0,zi,kitchen,k2_zi.png,0,0,zo,bathroom,b2_zo.png,m,1,1369,70799,301394,47,Man
546965,OSS,v7,3840,-0.40937902358261624,2009,3840,2160,2-15-2023,12-11-52,3,14,small,classroom,misscaled,misscaled,eraser.png,0,zo,kitchen,k1_zo.png,1,1,zo,kitchen,k4_zo.png,c,1,1160,70799,301394,47,Man
546965,OSS,v7,3840,-0.7903197628129668,2009,3840,2160,2-15-2023,12-11-52,3,15,large,classroom,misscaled,misscaled,computer.png,1,zi,classroom,c2_zi.png,1,1,zi,classroom,c4_zi.png,c,1,1088,70799,301394,47,Man
784455,OSS,v7,1319,0.9645882330763914,657,1366,768,2-16-2023,18-11-54,3,0,large,kitchen,misscaled,misscaled,kettle.png,0,zi,laundromat,l0_zi.png,1,0,zi,bathroom,b2_zi.png,m,1,1241,67777,219233,48,Woman
784455,OSS,v7,1319,1.5840984222071441,657,1366,768,2-16-2023,18-11-54,3,1,small,kitchen,misscaled,scaled,spoon.png,1,zi,kitchen,k5_zi.png,0,1,zo,kitchen,k1_zo.png,c,1,1412,67777,219233,48,Woman
784455,OSS,v7,1319,0.7798220363180967,657,1366,768,2-16-2023,18-11-54,3,2,large,classroom,misscaled,misscaled,computer.png,1,zi,classroom,c3_zi.png,1,1,zi,classroom,c0_zi.png,c,1,1190,67777,219233,48,Woman
784455,OSS,v7,1319,-1.3649149927193631,657,1366,768,2-16-2023,18-11-54,3,3,large,bathroom,scaled,misscaled,hairdryer.png,0,zi,classroom,c4_zi.png,0,0,zo,kitchen,k5_zo.png,m,1,598,67777,219233,48,Woman
784455,OSS,v7,1319,0.7218561706684357,657,1366,768,2-16-2023,18-11-54,3,4,small,classroom,scaled,misscaled,eraser.png,0,zo,laundromat,l0_zo.png,0,1,zi,laundromat,l3_zi.png,c,1,1174,67777,219233,48,Woman
784455,OSS,v7,1319,-0.053437282395781306,657,1366,768,2-16-2023,18-11-54,3,5,large,laundromat,misscaled,scaled,shorts.png,0,zo,bathroom,b4_zo.png,0,0,zi,kitchen,k3_zi.png,m,1,960,67777,219233,48,Woman
784455,OSS,v7,1319,-0.8432222018724135,657,1366,768,2-16-2023,18-11-54,3,6,small,laundromat,scaled,scaled,coins.png,0,zi,bathroom,b4_zi.png,1,1,zi,bathroom,b1_zi.png,c,1,742,67777,219233,48,Woman
784455,OSS,v7,1319,-1.1765259293579646,657,1366,768,2-16-2023,18-11-54,3,7,small,classroom,misscaled,misscaled,paperclip.png,0,zo,laundromat,l1_zo.png,1,1,zo,laundromat,l3_zo.png,c,1,650,67777,219233,48,Woman
784455,OSS,v7,1319,1.3304977599898768,657,1366,768,2-16-2023,18-11-54,3,8,small,classroom,misscaled,misscaled,binderclip.png,1,zo,classroom,c5_zo.png,1,0,zo,laundromat,l5_zo.png,m,1,1342,67777,219233,48,Woman
784455,OSS,v7,1319,-1.0461027316462272,657,1366,768,2-16-2023,18-11-54,3,9,small,kitchen,scaled,scaled,sponge.png,1,zi,kitchen,k0_zi.png,1,0,zi,laundromat,l1_zi.png,c,0,686,67777,219233,48,Woman
784455,OSS,v7,1319,0.1349517809656172,657,1366,768,2-16-2023,18-11-54,3,10,large,classroom,misscaled,misscaled,notebook.png,1,zi,classroom,c2_zi.png,1,1,zi,classroom,c1_zi.png,c,1,1012,67777,219233,48,Woman
784455,OSS,v7,1319,1.1674687628502052,657,1366,768,2-16-2023,18-11-54,3,11,small,bathroom,scaled,scaled,nailclipper.png,0,zi,kitchen,k2_zi.png,1,0,zi,classroom,c5_zi.png,m,1,1297,67777,219233,48,Woman
784455,OSS,v7,1319,-0.278055011788218,657,1366,768,2-16-2023,18-11-54,3,12,large,classroom,misscaled,scaled,powerstrip.png,0,zo,laundromat,l4_zo.png,0,0,zi,kitchen,k4_zi.png,c,0,898,67777,219233,48,Woman
784455,OSS,v7,1319,-1.187394529167276,657,1366,768,2-16-2023,18-11-54,3,13,large,laundromat,scaled,scaled,shirt.png,1,zo,laundromat,l2_zo.png,1,0,zo,kitchen,k4_zo.png,c,0,647,67777,219233,48,Woman
784455,OSS,v7,1319,0.11683744795009811,657,1366,768,2-16-2023,18-11-54,3,14,large,bathroom,misscaled,scaled,tissuebox.png,1,zo,bathroom,b2_zo.png,0,0,zi,laundromat,l2_zi.png,m,1,1007,67777,219233,48,Woman
784455,OSS,v7,1319,-0.8504679350786212,657,1366,768,2-16-2023,18-11-54,3,15,small,bathroom,misscaled,misscaled,floss.png,1,zo,bathroom,b5_zo.png,1,1,zo,bathroom,b0_zo.png,c,1,740,67777,219233,48,Woman
197946,OSS,v7,2048,-1.2519550347360244,1002,2048,1152,2-15-2023,12-7-17,3,0,small,classroom,misscaled,misscaled,paperclip.png,1,zo,classroom,c4_zo.png,1,0,zo,bathroom,b2_zo.png,c,0,672,66745,219441,27,Man
197946,OSS,v7,2048,-0.4720486196545666,1002,2048,1152,2-15-2023,12-7-17,3,1,large,laundromat,scaled,scaled,shorts.png,1,zo,laundromat,l5_zo.png,1,1,zo,laundromat,l0_zo.png,c,1,805,66745,219441,27,Man
197946,OSS,v7,2048,0.002931979004065631,1002,2048,1152,2-15-2023,12-7-17,3,2,large,laundromat,misscaled,scaled,shirt.png,0,zo,bathroom,b4_zo.png,0,0,zi,classroom,c3_zi.png,m,1,886,66745,219441,27,Man
197946,OSS,v7,2048,0.6538313179066357,1002,2048,1152,2-15-2023,12-7-17,3,3,small,kitchen,misscaled,misscaled,spoon.png,0,zo,bathroom,b3_zo.png,1,0,zo,laundromat,l3_zo.png,m,1,997,66745,219441,27,Man
197946,OSS,v7,2048,-1.1464037905896618,1002,2048,1152,2-15-2023,12-7-17,3,4,small,bathroom,scaled,misscaled,nailclipper.png,0,zo,classroom,c0_zo.png,0,0,zi,laundromat,l3_zi.png,m,1,690,66745,219441,27,Man
197946,OSS,v7,2048,0.37236133351633516,1002,2048,1152,2-15-2023,12-7-17,3,5,large,kitchen,scaled,misscaled,toaster.png,1,zi,kitchen,k0_zi.png,0,0,zo,classroom,c2_zo.png,c,0,949,66745,219441,27,Man
197946,OSS,v7,2048,1.5392889771344564,1002,2048,1152,2-15-2023,12-7-17,3,6,small,kitchen,misscaled,scaled,saltshaker.png,1,zi,kitchen,k1_zi.png,0,1,zo,kitchen,k0_zo.png,c,1,1148,66745,219441,27,Man
197946,OSS,v7,2048,-0.6948790239635546,1002,2048,1152,2-15-2023,12-7-17,3,7,small,bathroom,misscaled,misscaled,lipstick.png,1,zo,bathroom,b1_zo.png,1,0,zo,classroom,c3_zo.png,m,1,767,66745,219441,27,Man
197946,OSS,v7,2048,1.2050433706709744,1002,2048,1152,2-15-2023,12-7-17,3,8,large,kitchen,scaled,scaled,kettle.png,0,zo,bathroom,b5_zo.png,1,0,zo,classroom,c1_zo.png,m,1,1091,66745,219441,27,Man
197946,OSS,v7,2048,1.287138782784812,1002,2048,1152,2-15-2023,12-7-17,3,9,small,classroom,misscaled,scaled,eraser.png,1,zi,classroom,c0_zi.png,0,1,zo,classroom,c5_zo.png,c,1,1105,66745,219441,27,Man
197946,OSS,v7,2048,0.23162634132118487,1002,2048,1152,2-15-2023,12-7-17,3,10,small,classroom,misscaled,scaled,binderclip.png,0,zi,laundromat,l4_zi.png,0,1,zo,laundromat,l1_zo.png,c,1,925,66745,219441,27,Man
197946,OSS,v7,2048,-0.5424161157521418,1002,2048,1152,2-15-2023,12-7-17,3,11,large,bathroom,misscaled,misscaled,tissuebox.png,0,zi,laundromat,l1_zi.png,1,0,zi,kitchen,k5_zi.png,c,0,793,66745,219441,27,Man
197946,OSS,v7,2048,0.8766617222156237,1002,2048,1152,2-15-2023,12-7-17,3,12,small,kitchen,scaled,scaled,sponge.png,0,zi,classroom,c4_zi.png,1,0,zi,bathroom,b4_zi.png,m,1,1035,66745,219441,27,Man
197946,OSS,v7,2048,-0.12021113916669088,1002,2048,1152,2-15-2023,12-7-17,3,13,large,bathroom,misscaled,misscaled,hairdryer.png,1,zi,bathroom,b3_zi.png,1,0,zi,laundromat,l5_zi.png,c,0,865,66745,219441,27,Man
197946,OSS,v7,2048,-2.0553172818500074,1002,2048,1152,2-15-2023,12-7-17,3,14,large,bathroom,misscaled,misscaled,loofah.png,0,zi,classroom,c2_zi.png,1,1,zi,classroom,c5_zi.png,c,1,535,66745,219441,27,Man
197946,OSS,v7,2048,0.11434718115855962,1002,2048,1152,2-15-2023,12-7-17,3,15,large,kitchen,scaled,scaled,pot.png,1,zo,kitchen,k2_zo.png,1,1,zo,kitchen,k5_zo.png,c,1,905,66745,219441,27,Man
165503,OSS,v7,1366,-0.0977362306014894,617,1366,768,2-15-2023,9-54-48,3,0,large,kitchen,scaled,scaled,toaster.png,0,zo,bathroom,b3_zo.png,1,0,zo,classroom,c5_zo.png,m,1,956,66764,238674,35,Woman
165503,OSS,v7,1366,1.0525921125119893,617,1366,768,2-15-2023,9-54-48,3,1,small,bathroom,misscaled,scaled,lipstick.png,1,zi,bathroom,b0_zi.png,0,1,zo,bathroom,b1_zo.png,c,1,1301,66764,238674,35,Woman
165503,OSS,v7,1366,-0.5111875771118412,617,1366,768,2-15-2023,9-54-48,3,2,small,bathroom,scaled,misscaled,nailclipper.png,0,zo,classroom,c0_zo.png,0,1,zi,classroom,c2_zi.png,c,1,832,66764,238674,35,Woman
165503,OSS,v7,1366,0.138998008126212,617,1366,768,2-15-2023,9-54-48,3,3,small,classroom,misscaled,scaled,binderclip.png,0,zi,bathroom,b3_zi.png,0,0,zo,laundromat,l4_zo.png,m,1,1027,66764,238674,35,Woman
165503,OSS,v7,1366,-0.20443335228158016,617,1366,768,2-15-2023,9-54-48,3,4,large,bathroom,misscaled,misscaled,hairdryer.png,1,zi,bathroom,b4_zi.png,1,1,zi,bathroom,b5_zi.png,c,1,924,66764,238674,35,Woman
165503,OSS,v7,1366,0.16900657359873753,617,1366,768,2-15-2023,9-54-48,3,5,small,classroom,misscaled,misscaled,paperclip.png,0,zo,laundromat,l2_zo.png,1,0,zo,kitchen,k1_zo.png,c,0,1036,66764,238674,35,Woman
165503,OSS,v7,1366,2.606368946978311,617,1366,768,2-15-2023,9-54-48,3,6,large,bathroom,misscaled,scaled,loofah.png,0,zo,laundromat,l0_zo.png,0,1,zi,laundromat,l2_zi.png,c,1,1767,66764,238674,35,Woman
165503,OSS,v7,1366,0.28904083548883963,617,1366,768,2-15-2023,9-54-48,3,7,large,laundromat,misscaled,misscaled,detergent.png,1,zi,laundromat,l4_zi.png,1,0,zi,kitchen,k2_zi.png,m,1,1072,66764,238674,35,Woman
165503,OSS,v7,1366,-0.7245818204720227,617,1366,768,2-15-2023,9-54-48,3,8,small,kitchen,misscaled,misscaled,saltshaker.png,1,zo,kitchen,k0_zo.png,1,1,zo,kitchen,k4_zo.png,c,1,768,66764,238674,35,Woman
165503,OSS,v7,1366,-0.6178846987919319,617,1366,768,2-15-2023,9-54-48,3,9,small,laundromat,scaled,misscaled,coins.png,1,zo,laundromat,l3_zo.png,0,0,zi,kitchen,k1_zi.png,m,1,800,66764,238674,35,Woman
165503,OSS,v7,1366,-0.47451044153430993,617,1366,768,2-15-2023,9-54-48,3,10,large,kitchen,misscaled,misscaled,kettle.png,0,zi,classroom,c1_zi.png,1,1,zi,classroom,c4_zi.png,c,1,843,66764,238674,35,Woman
165503,OSS,v7,1366,0.649143621159146,617,1366,768,2-15-2023,9-54-48,3,11,small,laundromat,misscaled,scaled,tidepod.png,0,zi,kitchen,k0_zi.png,0,1,zo,kitchen,k3_zo.png,c,1,1180,66764,238674,35,Woman
165503,OSS,v7,1366,-1.0046617648822609,617,1366,768,2-15-2023,9-54-48,3,12,large,kitchen,misscaled,scaled,pot.png,1,zo,kitchen,k5_zo.png,0,1,zi,kitchen,k4_zi.png,c,1,684,66764,238674,35,Woman
165503,OSS,v7,1366,-1.1980502979274255,617,1366,768,2-15-2023,9-54-48,3,13,small,bathroom,scaled,scaled,floss.png,1,zi,bathroom,b2_zi.png,1,1,zi,bathroom,b1_zi.png,c,1,626,66764,238674,35,Woman
165503,OSS,v7,1366,-1.188047442769917,617,1366,768,2-15-2023,9-54-48,3,14,large,bathroom,misscaled,misscaled,tissuebox.png,0,zi,classroom,c0_zi.png,1,1,zi,classroom,c5_zi.png,c,1,629,66764,238674,35,Woman
165503,OSS,v7,1366,1.1159435285095431,617,1366,768,2-15-2023,9-54-48,3,15,large,laundromat,scaled,scaled,shirt.png,1,zo,laundromat,l5_zo.png,1,0,zo,kitchen,k2_zo.png,m,1,1320,66764,238674,35,Woman
893162,OSS,v7,1440,1.3550867763382177,768,1440,1080,2-16-2023,16-7-5,3,0,small,classroom,scaled,scaled,eraser.png,0,zi,kitchen,k2_zi.png,1,1,zi,kitchen,k4_zi.png,none,0,2006,75501,332731,66,Man
893162,OSS,v7,1440,0.03537076691911557,768,1440,1080,2-16-2023,16-7-5,3,1,small,bathroom,scaled,misscaled,floss.png,1,zo,bathroom,b1_zo.png,0,1,zi,bathroom,b0_zi.png,c,1,1451,75501,332731,66,Man
893162,OSS,v7,1440,0.03299290023547755,768,1440,1080,2-16-2023,16-7-5,3,2,small,classroom,scaled,scaled,paperclip.png,1,zi,classroom,c2_zi.png,1,1,zi,classroom,c0_zi.png,c,1,1450,75501,332731,66,Man
893162,OSS,v7,1440,-1.2344100421435882,768,1440,1080,2-16-2023,16-7-5,3,3,large,laundromat,misscaled,scaled,detergent.png,1,zo,laundromat,l3_zo.png,0,1,zi,laundromat,l1_zi.png,c,1,917,75501,332731,66,Man
893162,OSS,v7,1440,-1.550666311067445,768,1440,1080,2-16-2023,16-7-5,3,4,large,classroom,scaled,misscaled,computer.png,0,zi,laundromat,l0_zi.png,0,1,zo,laundromat,l5_zo.png,c,1,784,75501,332731,66,Man
893162,OSS,v7,1440,-0.12394630088463189,768,1440,1080,2-16-2023,16-7-5,3,5,large,classroom,misscaled,misscaled,powerstrip.png,1,zi,classroom,c5_zi.png,1,1,zi,classroom,c1_zi.png,c,1,1384,75501,332731,66,Man
893162,OSS,v7,1440,-0.6637220380704628,768,1440,1080,2-16-2023,16-7-5,3,6,small,bathroom,misscaled,misscaled,nailclipper.png,0,zo,kitchen,k3_zo.png,1,0,zo,classroom,c0_zo.png,m,1,1157,75501,332731,66,Man
893162,OSS,v7,1440,1.3550867763382177,768,1440,1080,2-16-2023,16-7-5,3,7,large,bathroom,scaled,scaled,hairdryer.png,0,zo,kitchen,k1_zo.png,1,0,zo,laundromat,l4_zo.png,none,0,2006,75501,332731,66,Man
893162,OSS,v7,1440,0.8295782392542148,768,1440,1080,2-16-2023,16-7-5,3,8,small,kitchen,misscaled,misscaled,spoon.png,1,zo,kitchen,k5_zo.png,1,1,zo,kitchen,k0_zo.png,c,1,1785,75501,332731,66,Man
893162,OSS,v7,1440,1.3622203763891318,768,1440,1080,2-16-2023,16-7-5,3,9,small,bathroom,scaled,misscaled,lipstick.png,0,zo,classroom,c5_zo.png,0,0,zi,kitchen,k5_zi.png,none,0,2009,75501,332731,66,Man
893162,OSS,v7,1440,1.3455753096036656,768,1440,1080,2-16-2023,16-7-5,3,10,large,kitchen,scaled,misscaled,toaster.png,0,zi,laundromat,l5_zi.png,0,1,zo,laundromat,l2_zo.png,none,0,2002,75501,332731,66,Man
893162,OSS,v7,1440,-0.9371767066888353,768,1440,1080,2-16-2023,16-7-5,3,11,small,classroom,misscaled,scaled,binderclip.png,1,zi,classroom,c4_zi.png,0,0,zo,laundromat,l1_zo.png,m,1,1042,75501,332731,66,Man
893162,OSS,v7,1440,-0.9942455070961479,768,1440,1080,2-16-2023,16-7-5,3,12,large,classroom,misscaled,scaled,notebook.png,0,zo,laundromat,l0_zo.png,0,1,zi,laundromat,l4_zi.png,c,1,1018,75501,332731,66,Man
893162,OSS,v7,1440,0.2921803687520219,768,1440,1080,2-16-2023,16-7-5,3,13,large,kitchen,scaled,scaled,kettle.png,1,zo,kitchen,k4_zo.png,1,1,zo,kitchen,k2_zo.png,c,1,1559,75501,332731,66,Man
893162,OSS,v7,1440,-0.44020256980848876,768,1440,1080,2-16-2023,16-7-5,3,14,small,laundromat,misscaled,scaled,tidepod.png,0,zi,classroom,c3_zi.png,0,1,zo,classroom,c4_zo.png,c,1,1251,75501,332731,66,Man
893162,OSS,v7,1440,-0.6637220380704628,768,1440,1080,2-16-2023,16-7-5,3,15,large,bathroom,misscaled,misscaled,loofah.png,1,zi,bathroom,b4_zi.png,1,1,zi,bathroom,b5_zi.png,c,1,1157,75501,332731,66,Man
695019,OSS,v7,1263,-0.44439783843759323,587,1280,720,2-16-2023,11-57-13,1,0,small,laundromat,scaled,misscaled,coins.png,1,zo,laundromat,l0_zo.png,0,1,zi,laundromat,l5_zi.png,c,1,623,61681,126750,41,Man
695019,OSS,v7,1263,0.9970378130150541,587,1280,720,2-16-2023,11-57-13,1,1,large,kitchen,misscaled,scaled,toaster.png,1,zo,kitchen,k2_zo.png,0,0,zi,bathroom,b4_zi.png,m,1,757,61681,126750,41,Man
695019,OSS,v7,1263,0.695842303756292,587,1280,720,2-16-2023,11-57-13,1,2,small,bathroom,misscaled,scaled,floss.png,0,zi,kitchen,k2_zi.png,0,0,zo,laundromat,l2_zo.png,m,1,729,61681,126750,41,Man
695019,OSS,v7,1263,-0.20774422401999443,587,1280,720,2-16-2023,11-57-13,1,3,small,laundromat,scaled,scaled,socks.png,0,zi,kitchen,k3_zi.png,1,0,zi,classroom,c2_zi.png,c,0,645,61681,126750,41,Man
695019,OSS,v7,1263,1.6854846913207961,587,1280,720,2-16-2023,11-57-13,1,4,small,kitchen,misscaled,scaled,spoon.png,1,zi,kitchen,k1_zi.png,0,0,zo,laundromat,l3_zo.png,m,1,821,61681,126750,41,Man
695019,OSS,v7,1263,0.31934791718283934,587,1280,720,2-16-2023,11-57-13,1,5,large,kitchen,misscaled,misscaled,kettle.png,1,zi,kitchen,k5_zi.png,1,0,zi,bathroom,b3_zi.png,m,1,694,61681,126750,41,Man
695019,OSS,v7,1263,0.26556300481520323,587,1280,720,2-16-2023,11-57-13,1,6,large,kitchen,misscaled,scaled,pot.png,0,zo,laundromat,l5_zo.png,0,1,zi,laundromat,l4_zi.png,c,1,689,61681,126750,41,Man
695019,OSS,v7,1263,-0.024875521970031695,587,1280,720,2-16-2023,11-57-13,1,7,large,classroom,scaled,scaled,notebook.png,0,zo,kitchen,k0_zo.png,1,1,zo,kitchen,k4_zo.png,c,1,662,61681,126750,41,Man
695019,OSS,v7,1263,1.3197472872208706,587,1280,720,2-16-2023,11-57-13,1,8,large,bathroom,scaled,misscaled,tissuebox.png,1,zi,bathroom,b1_zi.png,0,1,zo,bathroom,b4_zo.png,c,1,787,61681,126750,41,Man
695019,OSS,v7,1263,-1.5308530682638424,587,1280,720,2-16-2023,11-57-13,1,9,large,laundromat,misscaled,scaled,detergent.png,1,zo,laundromat,l4_zo.png,0,0,zi,kitchen,k0_zi.png,m,1,522,61681,126750,41,Man
695019,OSS,v7,1263,0.6850853212827648,587,1280,720,2-16-2023,11-57-13,1,10,small,bathroom,scaled,misscaled,lipstick.png,0,zo,kitchen,k1_zo.png,0,1,zi,kitchen,k4_zi.png,c,1,728,61681,126750,41,Man
695019,OSS,v7,1263,-0.22925818896704886,587,1280,720,2-16-2023,11-57-13,1,11,small,classroom,scaled,scaled,paperclip.png,1,zi,classroom,c5_zi.png,1,1,zi,classroom,c4_zi.png,c,1,643,61681,126750,41,Man
695019,OSS,v7,1263,-1.7029647878402778,587,1280,720,2-16-2023,11-57-13,1,12,small,kitchen,misscaled,misscaled,saltshaker.png,1,zo,kitchen,k3_zo.png,1,1,zo,kitchen,k5_zo.png,c,1,506,61681,126750,41,Man
695019,OSS,v7,1263,-1.4340402260020975,587,1280,720,2-16-2023,11-57-13,1,13,large,laundromat,misscaled,misscaled,shirt.png,0,zi,classroom,c0_zi.png,1,1,zi,classroom,c1_zi.png,c,1,531,61681,126750,41,Man
695019,OSS,v7,1263,0.3623758470769482,587,1280,720,2-16-2023,11-57-13,1,14,small,bathroom,misscaled,misscaled,nailclipper.png,0,zo,laundromat,l1_zo.png,1,0,zo,classroom,c3_zo.png,m,1,698,61681,126750,41,Man
695019,OSS,v7,1263,-0.7563503301698826,587,1280,720,2-16-2023,11-57-13,1,15,large,laundromat,scaled,misscaled,shorts.png,0,zi,classroom,c3_zi.png,0,1,zo,classroom,c0_zo.png,c,1,594,61681,126750,41,Man
164328,OSS,v7,1920,1.2777032471870038,969,1920,1080,2-16-2023,10-42-32,1,0,large,bathroom,scaled,misscaled,tissuebox.png,0,zi,laundromat,l5_zi.png,0,0,zo,kitchen,k3_zo.png,m,1,1081,65294,107099,46,Man
164328,OSS,v7,1920,0.845343968011194,969,1920,1080,2-16-2023,10-42-32,1,1,large,kitchen,misscaled,misscaled,kettle.png,0,zi,classroom,c4_zi.png,1,1,zi,classroom,c5_zi.png,c,1,1028,65294,107099,46,Man
164328,OSS,v7,1920,-0.10910953507502746,969,1920,1080,2-16-2023,10-42-32,1,2,large,bathroom,scaled,scaled,loofah.png,0,zo,kitchen,k2_zo.png,1,0,zo,laundromat,l3_zo.png,m,1,911,65294,107099,46,Man
164328,OSS,v7,1920,0.9106057459999956,969,1920,1080,2-16-2023,10-42-32,1,3,large,bathroom,misscaled,misscaled,hairdryer.png,1,zi,bathroom,b0_zi.png,1,0,zi,kitchen,k3_zi.png,m,1,1036,65294,107099,46,Man
164328,OSS,v7,1920,0.9758675239887971,969,1920,1080,2-16-2023,10-42-32,1,4,large,kitchen,scaled,scaled,toaster.png,1,zo,kitchen,k0_zo.png,1,1,zo,kitchen,k5_zo.png,c,1,1044,65294,107099,46,Man
164328,OSS,v7,1920,-0.003059145843225069,969,1920,1080,2-16-2023,10-42-32,1,5,small,bathroom,scaled,scaled,floss.png,1,zi,bathroom,b4_zi.png,1,0,zi,classroom,c3_zi.png,m,1,924,65294,107099,46,Man
164328,OSS,v7,1920,0.4211424110839845,969,1920,1080,2-16-2023,10-42-32,1,6,small,kitchen,scaled,misscaled,sponge.png,0,zo,bathroom,b3_zo.png,0,0,zi,laundromat,l0_zi.png,m,1,976,65294,107099,46,Man
164328,OSS,v7,1920,1.0411293019775985,969,1920,1080,2-16-2023,10-42-32,1,7,large,laundromat,scaled,misscaled,detergent.png,1,zi,laundromat,l1_zi.png,0,1,zo,laundromat,l0_zo.png,c,1,1052,65294,107099,46,Man
164328,OSS,v7,1920,-1.504080039585659,969,1920,1080,2-16-2023,10-42-32,1,8,small,kitchen,scaled,misscaled,saltshaker.png,1,zo,kitchen,k1_zo.png,0,0,zi,classroom,c0_zi.png,m,1,740,65294,107099,46,Man
164328,OSS,v7,1920,-0.13358270182082801,969,1920,1080,2-16-2023,10-42-32,1,9,large,classroom,misscaled,scaled,computer.png,1,zo,classroom,c0_zo.png,0,0,zi,laundromat,l3_zi.png,m,1,908,65294,107099,46,Man
164328,OSS,v7,1920,-1.4469759838454577,969,1920,1080,2-16-2023,10-42-32,1,10,small,laundromat,misscaled,scaled,socks.png,0,zi,kitchen,k2_zi.png,0,1,zo,kitchen,k4_zo.png,c,1,747,65294,107099,46,Man
164328,OSS,v7,1920,-1.5203954840828593,969,1920,1080,2-16-2023,10-42-32,1,11,small,laundromat,misscaled,misscaled,coins.png,1,zo,laundromat,l1_zo.png,1,1,zo,laundromat,l4_zo.png,c,1,738,65294,107099,46,Man
164328,OSS,v7,1920,1.0329715797289982,969,1920,1080,2-16-2023,10-42-32,1,12,large,kitchen,scaled,scaled,pot.png,0,zo,bathroom,b4_zo.png,1,1,zo,bathroom,b2_zo.png,c,1,1051,65294,107099,46,Man
164328,OSS,v7,1920,-0.1417404240694282,969,1920,1080,2-16-2023,10-42-32,1,13,small,laundromat,scaled,scaled,tidepod.png,1,zi,laundromat,l4_zi.png,1,1,zi,laundromat,l2_zi.png,c,1,907,65294,107099,46,Man
164328,OSS,v7,1920,-0.3375257580358326,969,1920,1080,2-16-2023,10-42-32,1,14,small,kitchen,scaled,scaled,spoon.png,0,zi,bathroom,b5_zi.png,1,1,zi,bathroom,b1_zi.png,c,1,883,65294,107099,46,Man
164328,OSS,v7,1920,-1.3082947056192544,969,1920,1080,2-16-2023,10-42-32,1,15,small,classroom,scaled,misscaled,eraser.png,0,zo,bathroom,b1_zo.png,0,1,zi,bathroom,b3_zi.png,c,1,764,65294,107099,46,Man
360628,OSS,v7,1536,2.326762616466133,746,1536,864,2-16-2023,12-40-7,2,0,small,classroom,misscaled,scaled,paperclip.png,0,zi,laundromat,l4_zi.png,0,0,zo,kitchen,k0_zo.png,m,1,1211,63698,175505,33,Man
360628,OSS,v7,1536,-0.06706854548572001,746,1536,864,2-16-2023,12-40-7,2,1,small,bathroom,scaled,scaled,nailclipper.png,0,zi,laundromat,l5_zi.png,1,0,zi,kitchen,k2_zi.png,m,1,776,63698,175505,33,Man
360628,OSS,v7,1536,-1.0796316116906417,746,1536,864,2-16-2023,12-40-7,2,2,small,classroom,misscaled,scaled,eraser.png,1,zi,classroom,c0_zi.png,0,1,zo,classroom,c4_zo.png,c,1,592,63698,175505,33,Man
360628,OSS,v7,1536,-0.5183194771640004,746,1536,864,2-16-2023,12-40-7,2,3,small,classroom,misscaled,misscaled,binderclip.png,0,zo,kitchen,k5_zo.png,1,1,zo,kitchen,k4_zo.png,m,0,694,63698,175505,33,Man
360628,OSS,v7,1536,0.5712864310347741,746,1536,864,2-16-2023,12-40-7,2,4,small,laundromat,misscaled,misscaled,tidepod.png,1,zo,laundromat,l1_zo.png,1,0,zo,kitchen,k1_zo.png,m,1,892,63698,175505,33,Man
360628,OSS,v7,1536,-1.2282142355359291,746,1536,864,2-16-2023,12-40-7,2,5,large,bathroom,scaled,scaled,loofah.png,1,zo,bathroom,b3_zo.png,1,0,zo,laundromat,l0_zo.png,m,1,565,63698,175505,33,Man
360628,OSS,v7,1536,0.48323746875608525,746,1536,864,2-16-2023,12-40-7,2,6,large,laundromat,scaled,misscaled,shorts.png,1,zi,laundromat,l3_zi.png,0,1,zo,laundromat,l4_zo.png,c,1,876,63698,175505,33,Man
360628,OSS,v7,1536,0.8189241374435865,746,1536,864,2-16-2023,12-40-7,2,7,large,kitchen,misscaled,scaled,kettle.png,0,zo,bathroom,b2_zo.png,0,0,zi,laundromat,l0_zi.png,m,1,937,63698,175505,33,Man
360628,OSS,v7,1536,-0.793472484284903,746,1536,864,2-16-2023,12-40-7,2,8,small,bathroom,misscaled,misscaled,lipstick.png,0,zo,classroom,c1_zo.png,1,1,zo,classroom,c0_zo.png,c,1,644,63698,175505,33,Man
360628,OSS,v7,1536,0.7143659947376435,746,1536,864,2-16-2023,12-40-7,2,9,large,bathroom,misscaled,scaled,tissuebox.png,0,zo,kitchen,k3_zo.png,0,1,zi,kitchen,k1_zi.png,c,1,918,63698,175505,33,Man
360628,OSS,v7,1536,1.3637270915429738,746,1536,864,2-16-2023,12-40-7,2,10,large,classroom,misscaled,misscaled,notebook.png,0,zi,bathroom,b0_zi.png,1,0,zi,kitchen,k0_zi.png,m,1,1036,63698,175505,33,Man
360628,OSS,v7,1536,-0.05606242520088391,746,1536,864,2-16-2023,12-40-7,2,11,small,laundromat,misscaled,scaled,coins.png,1,zi,laundromat,l2_zi.png,0,0,zo,classroom,c3_zo.png,m,1,778,63698,175505,33,Man
360628,OSS,v7,1536,-0.38074297360354903,746,1536,864,2-16-2023,12-40-7,2,12,large,kitchen,misscaled,misscaled,pot.png,1,zi,kitchen,k4_zi.png,1,1,zi,kitchen,k5_zi.png,c,1,719,63698,175505,33,Man
360628,OSS,v7,1536,-0.05055936505846586,746,1536,864,2-16-2023,12-40-7,2,13,large,bathroom,misscaled,misscaled,hairdryer.png,0,zi,laundromat,l1_zi.png,1,0,zi,classroom,c3_zi.png,m,1,779,63698,175505,33,Man
360628,OSS,v7,1536,-0.9035336871332641,746,1536,864,2-16-2023,12-40-7,2,14,large,laundromat,scaled,scaled,shirt.png,1,zo,laundromat,l2_zo.png,1,0,zo,kitchen,k2_zo.png,m,1,624,63698,175505,33,Man
360628,OSS,v7,1536,-1.2006989348238388,746,1536,864,2-16-2023,12-40-7,2,15,small,bathroom,scaled,misscaled,floss.png,1,zo,bathroom,b5_zo.png,0,1,zi,bathroom,b4_zi.png,m,0,570,63698,175505,33,Man
339421,OSS,v7,1440,0.6006593816390143,789,1440,900,2-15-2023,10-2-28,2,0,large,laundromat,misscaled,misscaled,shorts.png,0,zi,bathroom,b4_zi.png,1,0,zi,classroom,c1_zi.png,m,1,951,65486,163177,37,Non-binary
339421,OSS,v7,1440,0.37766416129085734,789,1440,900,2-15-2023,10-2-28,2,1,large,laundromat,misscaled,scaled,shirt.png,1,zo,laundromat,l2_zo.png,0,0,zi,bathroom,b0_zi.png,m,1,910,65486,163177,37,Non-binary
339421,OSS,v7,1440,1.0412109145219586,789,1440,900,2-15-2023,10-2-28,2,2,large,classroom,misscaled,misscaled,notebook.png,1,zi,classroom,c0_zi.png,1,1,zi,classroom,c4_zi.png,c,1,1032,65486,163177,37,Non-binary
339421,OSS,v7,1440,1.7645856537001263,789,1440,900,2-15-2023,10-2-28,2,3,large,kitchen,scaled,misscaled,toaster.png,0,zi,bathroom,b3_zi.png,0,0,zo,laundromat,l0_zo.png,m,1,1165,65486,163177,37,Non-binary
339421,OSS,v7,1440,1.7591467458867567,789,1440,900,2-15-2023,10-2-28,2,4,large,bathroom,misscaled,misscaled,hairdryer.png,1,zi,bathroom,b1_zi.png,1,0,zi,laundromat,l2_zi.png,m,1,1164,65486,163177,37,Non-binary
339421,OSS,v7,1440,-0.5904614294889462,789,1440,900,2-15-2023,10-2-28,2,5,large,kitchen,scaled,scaled,pot.png,0,zo,classroom,c3_zo.png,1,0,zo,laundromat,l3_zo.png,m,1,732,65486,163177,37,Non-binary
339421,OSS,v7,1440,-1.1506689342660235,789,1440,900,2-15-2023,10-2-28,2,6,small,kitchen,scaled,misscaled,spoon.png,1,zo,kitchen,k3_zo.png,0,0,zi,classroom,c3_zi.png,m,1,629,65486,163177,37,Non-binary
339421,OSS,v7,1440,0.6713651832128202,789,1440,900,2-15-2023,10-2-28,2,7,small,classroom,misscaled,scaled,paperclip.png,0,zi,bathroom,b2_zi.png,0,0,zo,kitchen,k1_zo.png,m,1,964,65486,163177,37,Non-binary
339421,OSS,v7,1440,-0.06832627940545663,789,1440,900,2-15-2023,10-2-28,2,8,large,kitchen,scaled,scaled,kettle.png,0,zo,bathroom,b2_zo.png,1,1,zo,bathroom,b1_zo.png,c,1,828,65486,163177,37,Non-binary
339421,OSS,v7,1440,-1.0582075014387389,789,1440,900,2-15-2023,10-2-28,2,9,small,kitchen,scaled,scaled,sponge.png,0,zi,bathroom,b5_zi.png,1,0,zi,classroom,c5_zi.png,m,1,646,65486,163177,37,Non-binary
339421,OSS,v7,1440,-1.21049692021309,789,1440,900,2-15-2023,10-2-28,2,10,large,classroom,scaled,scaled,computer.png,1,zo,classroom,c4_zo.png,1,1,zo,classroom,c1_zo.png,m,0,618,65486,163177,37,Non-binary
339421,OSS,v7,1440,-1.4008586936810288,789,1440,900,2-15-2023,10-2-28,2,11,small,bathroom,misscaled,misscaled,lipstick.png,0,zo,classroom,c0_zo.png,1,1,zo,classroom,c2_zo.png,m,0,583,65486,163177,37,Non-binary
339421,OSS,v7,1440,0.2580081893967243,789,1440,900,2-15-2023,10-2-28,2,12,small,laundromat,misscaled,scaled,coins.png,1,zi,laundromat,l1_zi.png,0,0,zo,kitchen,k0_zo.png,m,1,888,65486,163177,37,Non-binary
339421,OSS,v7,1440,-0.6285337841825339,789,1440,900,2-15-2023,10-2-28,2,13,small,bathroom,misscaled,misscaled,nailclipper.png,0,zo,kitchen,k4_zo.png,1,1,zo,kitchen,k2_zo.png,c,1,725,65486,163177,37,Non-binary
339421,OSS,v7,1440,-0.1716655278594806,789,1440,900,2-15-2023,10-2-28,2,14,small,laundromat,misscaled,scaled,socks.png,1,zi,laundromat,l0_zi.png,0,1,zo,laundromat,l4_zo.png,m,0,809,65486,163177,37,Non-binary
339421,OSS,v7,1440,-0.19342115911295935,789,1440,900,2-15-2023,10-2-28,2,15,small,classroom,misscaled,misscaled,binderclip.png,1,zo,classroom,c5_zo.png,1,0,zo,kitchen,k5_zo.png,m,1,805,65486,163177,37,Non-binary
916563,OSS,v7,1680,-0.8831340402230397,907,1680,1050,2-16-2023,12-1-16,1,0,small,classroom,misscaled,scaled,binderclip.png,1,zi,classroom,c0_zi.png,0,0,zo,kitchen,k1_zo.png,m,1,703,66087,187363,39,Woman
916563,OSS,v7,1680,-0.7825039300017794,907,1680,1050,2-16-2023,12-1-16,1,1,small,classroom,misscaled,misscaled,eraser.png,1,zo,classroom,c2_zo.png,1,0,zo,bathroom,b1_zo.png,c,0,727,66087,187363,39,Woman
916563,OSS,v7,1680,0.9617513138333993,907,1680,1050,2-16-2023,12-1-16,1,2,large,kitchen,scaled,misscaled,kettle.png,1,zi,kitchen,k1_zi.png,0,1,zo,kitchen,k4_zo.png,c,1,1143,66087,187363,39,Woman
916563,OSS,v7,1680,-0.6231729221514506,907,1680,1050,2-16-2023,12-1-16,1,3,large,laundromat,scaled,scaled,detergent.png,0,zo,classroom,c1_zo.png,1,0,zo,kitchen,k3_zo.png,m,1,765,66087,187363,39,Woman
916563,OSS,v7,1680,0.6556680619103992,907,1680,1050,2-16-2023,12-1-16,1,4,large,bathroom,misscaled,misscaled,hairdryer.png,1,zi,bathroom,b0_zi.png,1,0,zi,laundromat,l1_zi.png,m,1,1070,66087,187363,39,Woman
916563,OSS,v7,1680,-0.283546300154697,907,1680,1050,2-16-2023,12-1-16,1,5,small,laundromat,misscaled,misscaled,coins.png,0,zo,bathroom,b3_zo.png,1,1,zo,bathroom,b0_zo.png,c,1,846,66087,187363,39,Woman
916563,OSS,v7,1680,-0.14937281985968326,907,1680,1050,2-16-2023,12-1-16,1,6,large,classroom,scaled,scaled,powerstrip.png,0,zo,kitchen,k0_zo.png,1,0,zo,bathroom,b2_zo.png,m,1,878,66087,187363,39,Woman
916563,OSS,v7,1680,-0.4512631505234642,907,1680,1050,2-16-2023,12-1-16,1,7,small,classroom,misscaled,misscaled,paperclip.png,0,zo,kitchen,k5_zo.png,1,1,zo,kitchen,k2_zo.png,c,1,806,66087,187363,39,Woman
916563,OSS,v7,1680,0.38732110132037173,907,1680,1050,2-16-2023,12-1-16,1,8,small,bathroom,misscaled,scaled,floss.png,0,zi,classroom,c1_zi.png,0,1,zo,classroom,c3_zo.png,c,1,1006,66087,187363,39,Woman
916563,OSS,v7,1680,-0.4135268591904916,907,1680,1050,2-16-2023,12-1-16,1,9,large,laundromat,scaled,scaled,shorts.png,1,zo,laundromat,l5_zo.png,1,0,zo,bathroom,b4_zo.png,m,1,815,66087,187363,39,Woman
916563,OSS,v7,1680,0.8946645736858925,907,1680,1050,2-16-2023,12-1-16,1,10,small,laundromat,scaled,scaled,tidepod.png,1,zi,laundromat,l3_zi.png,1,0,zi,bathroom,b1_zi.png,m,1,1127,66087,187363,39,Woman
916563,OSS,v7,1680,-1.285654481108081,907,1680,1050,2-16-2023,12-1-16,1,11,small,kitchen,misscaled,scaled,saltshaker.png,0,zi,classroom,c2_zi.png,0,1,zo,classroom,c4_zo.png,c,1,607,66087,187363,39,Woman
916563,OSS,v7,1680,-0.8495906701492862,907,1680,1050,2-16-2023,12-1-16,1,12,large,laundromat,misscaled,misscaled,shirt.png,0,zi,kitchen,k2_zi.png,1,0,zi,bathroom,b4_zi.png,m,1,711,66087,187363,39,Woman
916563,OSS,v7,1680,-0.6776808985212999,907,1680,1050,2-16-2023,12-1-16,1,13,large,kitchen,misscaled,misscaled,toaster.png,0,zi,laundromat,l5_zi.png,1,1,zi,laundromat,l2_zi.png,m,0,752,66087,187363,39,Woman
916563,OSS,v7,1680,0.8904716524266733,907,1680,1050,2-16-2023,12-1-16,1,14,large,classroom,misscaled,scaled,computer.png,1,zo,classroom,c0_zo.png,0,0,zi,laundromat,l0_zi.png,m,1,1126,66087,187363,39,Woman
916563,OSS,v7,1680,2.609569368706537,907,1680,1050,2-16-2023,12-1-16,1,15,small,laundromat,scaled,misscaled,socks.png,1,zo,laundromat,l2_zo.png,0,0,zi,kitchen,k5_zi.png,m,1,1536,66087,187363,39,Woman
454037,OSS,v7,1920,-1.1190547138221156,937,1920,1080,2-15-2023,11-41-5,2,0,large,bathroom,scaled,misscaled,loofah.png,0,zi,laundromat,l5_zi.png,0,0,zo,classroom,c0_zo.png,m,1,733,65476,187251,34,Man
454037,OSS,v7,1920,-1.0374463481833105,937,1920,1080,2-15-2023,11-41-5,2,1,small,bathroom,scaled,misscaled,floss.png,0,zo,laundromat,l3_zo.png,0,1,zi,laundromat,l4_zi.png,m,0,743,65476,187251,34,Man
454037,OSS,v7,1920,-0.42538360589227187,937,1920,1080,2-15-2023,11-41-5,2,2,large,kitchen,misscaled,misscaled,toaster.png,1,zi,kitchen,k0_zi.png,1,1,zi,kitchen,k5_zi.png,c,1,818,65476,187251,34,Man
454037,OSS,v7,1920,1.1170145046811455,937,1920,1080,2-15-2023,11-41-5,2,3,large,classroom,misscaled,scaled,computer.png,1,zo,classroom,c2_zo.png,0,0,zi,laundromat,l1_zi.png,m,1,1007,65476,187251,34,Man
454037,OSS,v7,1920,1.6964339007166622,937,1920,1080,2-15-2023,11-41-5,2,4,small,bathroom,misscaled,scaled,nailclipper.png,0,zi,classroom,c5_zi.png,0,1,zo,classroom,c4_zo.png,c,1,1078,65476,187251,34,Man
454037,OSS,v7,1920,-0.0010201045704850643,937,1920,1080,2-15-2023,11-41-5,2,5,large,classroom,misscaled,scaled,powerstrip.png,1,zo,classroom,c5_zo.png,0,0,zi,laundromat,l3_zi.png,m,1,870,65476,187251,34,Man
454037,OSS,v7,1920,-1.4291665032495753,937,1920,1080,2-15-2023,11-41-5,2,6,large,classroom,misscaled,scaled,notebook.png,0,zo,kitchen,k1_zo.png,0,1,zi,kitchen,k4_zi.png,c,1,695,65476,187251,34,Man
454037,OSS,v7,1920,0.4070217236235407,937,1920,1080,2-15-2023,11-41-5,2,7,small,laundromat,misscaled,scaled,socks.png,1,zi,laundromat,l2_zi.png,0,0,zo,classroom,c1_zo.png,m,1,920,65476,187251,34,Man
454037,OSS,v7,1920,1.6719513910250206,937,1920,1080,2-15-2023,11-41-5,2,8,small,classroom,scaled,scaled,eraser.png,0,zi,laundromat,l0_zi.png,1,0,zi,bathroom,b3_zi.png,m,1,1075,65476,187251,34,Man
454037,OSS,v7,1920,-1.4536490129412167,937,1920,1080,2-15-2023,11-41-5,2,9,small,classroom,scaled,misscaled,paperclip.png,1,zo,classroom,c3_zo.png,0,1,zi,classroom,c4_zi.png,c,1,692,65476,187251,34,Man
454037,OSS,v7,1920,0.06426658794055906,937,1920,1080,2-15-2023,11-41-5,2,10,small,classroom,scaled,misscaled,binderclip.png,0,zo,laundromat,l1_zo.png,0,0,zi,bathroom,b0_zi.png,m,1,878,65476,187251,34,Man
454037,OSS,v7,1920,0.023462405121156483,937,1920,1080,2-15-2023,11-41-5,2,11,small,bathroom,scaled,scaled,lipstick.png,1,zi,bathroom,b2_zi.png,1,1,zi,bathroom,b1_zi.png,c,1,873,65476,187251,34,Man
454037,OSS,v7,1920,0.7008118399232393,937,1920,1080,2-15-2023,11-41-5,2,12,large,laundromat,misscaled,misscaled,shirt.png,0,zi,bathroom,b4_zi.png,1,0,zi,kitchen,k1_zi.png,m,1,956,65476,187251,34,Man
454037,OSS,v7,1920,0.4151825601874212,937,1920,1080,2-15-2023,11-41-5,2,13,small,kitchen,scaled,misscaled,sponge.png,1,zo,kitchen,k3_zo.png,0,0,zi,bathroom,b5_zi.png,c,0,921,65476,187251,34,Man
454037,OSS,v7,1920,0.12139244388772266,937,1920,1080,2-15-2023,11-41-5,2,14,large,bathroom,scaled,scaled,tissuebox.png,0,zo,kitchen,k4_zo.png,1,1,zo,kitchen,k5_zo.png,c,1,885,65476,187251,34,Man
454037,OSS,v7,1920,-0.7518170684474925,937,1920,1080,2-15-2023,11-41-5,2,15,large,kitchen,scaled,misscaled,pot.png,1,zi,kitchen,k3_zi.png,0,1,zo,kitchen,k2_zo.png,c,1,778,65476,187251,34,Man
767690,OSS,v7,1823,3.144539003083152,1301,2560,1440,2-15-2023,8-16-20,1,0,large,bathroom,misscaled,misscaled,tissuebox.png,0,zi,classroom,c0_zi.png,1,1,zi,classroom,c1_zi.png,c,1,1763,63579,155143,39,Man
767690,OSS,v7,1823,0.4867386811517196,1301,2560,1440,2-15-2023,8-16-20,1,1,large,bathroom,misscaled,scaled,hairdryer.png,1,zo,bathroom,b3_zo.png,0,0,zi,kitchen,k0_zi.png,m,1,961,63579,155143,39,Man
767690,OSS,v7,1823,0.23156333852239255,1301,2560,1440,2-15-2023,8-16-20,1,2,small,bathroom,misscaled,scaled,floss.png,0,zi,kitchen,k2_zi.png,0,0,zo,laundromat,l4_zo.png,m,1,884,63579,155143,39,Man
767690,OSS,v7,1823,-0.3086130361344946,1301,2560,1440,2-15-2023,8-16-20,1,3,large,laundromat,scaled,misscaled,shirt.png,0,zi,classroom,c5_zi.png,0,1,zo,classroom,c3_zo.png,c,1,721,63579,155143,39,Man
767690,OSS,v7,1823,-0.6234397575602877,1301,2560,1440,2-15-2023,8-16-20,1,4,large,kitchen,scaled,scaled,pot.png,0,zo,classroom,c4_zo.png,1,1,zo,classroom,c2_zo.png,c,1,626,63579,155143,39,Man
767690,OSS,v7,1823,0.04929523664430182,1301,2560,1440,2-15-2023,8-16-20,1,5,large,bathroom,scaled,misscaled,loofah.png,1,zi,bathroom,b4_zi.png,0,0,zo,classroom,c0_zo.png,m,1,829,63579,155143,39,Man
767690,OSS,v7,1823,-0.6466375159811356,1301,2560,1440,2-15-2023,8-16-20,1,6,small,laundromat,misscaled,misscaled,coins.png,1,zo,laundromat,l1_zo.png,1,1,zo,laundromat,l2_zo.png,c,1,619,63579,155143,39,Man
767690,OSS,v7,1823,-1.0608832020677055,1301,2560,1440,2-15-2023,8-16-20,1,7,small,kitchen,misscaled,misscaled,sponge.png,0,zo,laundromat,l3_zo.png,1,0,zo,classroom,c1_zo.png,m,1,494,63579,155143,39,Man
767690,OSS,v7,1823,0.7849955751340499,1301,2560,1440,2-15-2023,8-16-20,1,8,small,kitchen,scaled,scaled,spoon.png,0,zi,laundromat,l3_zi.png,1,0,zi,bathroom,b1_zi.png,m,1,1051,63579,155143,39,Man
767690,OSS,v7,1823,-0.5737302752298993,1301,2560,1440,2-15-2023,8-16-20,1,9,small,bathroom,scaled,scaled,nailclipper.png,1,zi,bathroom,b0_zi.png,1,1,zi,bathroom,b2_zi.png,c,1,641,63579,155143,39,Man
767690,OSS,v7,1823,-1.0178016507147023,1301,2560,1440,2-15-2023,8-16-20,1,10,small,classroom,scaled,misscaled,paperclip.png,0,zo,bathroom,b0_zo.png,0,1,zi,bathroom,b3_zi.png,c,1,507,63579,155143,39,Man
767690,OSS,v7,1823,0.23819126949977767,1301,2560,1440,2-15-2023,8-16-20,1,11,small,laundromat,scaled,scaled,tidepod.png,1,zi,laundromat,l2_zi.png,1,0,zi,classroom,c4_zi.png,m,1,886,63579,155143,39,Man
767690,OSS,v7,1823,-0.37489234590834575,1301,2560,1440,2-15-2023,8-16-20,1,12,large,classroom,misscaled,misscaled,notebook.png,1,zi,classroom,c2_zi.png,1,0,zi,bathroom,b5_zi.png,m,1,701,63579,155143,39,Man
767690,OSS,v7,1823,0.47679678468564196,1301,2560,1440,2-15-2023,8-16-20,1,13,large,laundromat,scaled,scaled,detergent.png,0,zo,bathroom,b5_zo.png,1,0,zo,kitchen,k3_zo.png,m,1,958,63579,155143,39,Man
767690,OSS,v7,1823,-0.22907786440587313,1301,2560,1440,2-15-2023,8-16-20,1,14,large,kitchen,misscaled,scaled,kettle.png,1,zo,kitchen,k2_zo.png,0,1,zi,kitchen,k3_zi.png,c,1,745,63579,155143,39,Man
767690,OSS,v7,1823,-0.5770442407185918,1301,2560,1440,2-15-2023,8-16-20,1,15,small,bathroom,misscaled,misscaled,lipstick.png,1,zo,bathroom,b2_zo.png,1,0,zo,laundromat,l0_zo.png,m,1,640,63579,155143,39,Man
459432,OSS,v7,1536,0.43131334538617094,746,1536,864,2-15-2023,9-54-18,1,0,small,kitchen,scaled,scaled,spoon.png,0,zi,classroom,c3_zi.png,1,1,zi,classroom,c0_zi.png,c,1,968,64102,121462,28,Woman
459432,OSS,v7,1536,1.5628048245343868,746,1536,864,2-15-2023,9-54-18,1,1,large,classroom,scaled,misscaled,powerstrip.png,1,zi,classroom,c4_zi.png,0,0,zo,kitchen,k0_zo.png,m,1,1281,64102,121462,28,Woman
459432,OSS,v7,1536,0.7566623330006739,746,1536,864,2-15-2023,9-54-18,1,2,small,classroom,misscaled,misscaled,eraser.png,0,zo,laundromat,l3_zo.png,1,0,zo,bathroom,b1_zo.png,m,1,1058,64102,121462,28,Woman
459432,OSS,v7,1536,1.9243036996616123,746,1536,864,2-15-2023,9-54-18,1,3,small,classroom,scaled,scaled,paperclip.png,1,zi,classroom,c2_zi.png,1,0,zi,bathroom,b5_zi.png,m,1,1381,64102,121462,28,Woman
459432,OSS,v7,1536,0.33009366035054777,746,1536,864,2-15-2023,9-54-18,1,4,small,kitchen,scaled,misscaled,sponge.png,1,zo,kitchen,k4_zo.png,0,0,zi,laundromat,l0_zi.png,m,1,940,64102,121462,28,Woman
459432,OSS,v7,1536,-0.7182530775184062,746,1536,864,2-15-2023,9-54-18,1,5,small,laundromat,scaled,misscaled,socks.png,0,zo,kitchen,k1_zo.png,0,0,zi,bathroom,b4_zi.png,m,1,650,64102,121462,28,Woman
459432,OSS,v7,1536,-0.559193572462427,746,1536,864,2-15-2023,9-54-18,1,6,large,laundromat,scaled,misscaled,detergent.png,1,zi,laundromat,l3_zi.png,0,0,zo,classroom,c4_zo.png,m,1,694,64102,121462,28,Woman
459432,OSS,v7,1536,-1.0761369638943594,746,1536,864,2-15-2023,9-54-18,1,7,large,classroom,misscaled,misscaled,notebook.png,0,zi,laundromat,l1_zi.png,1,1,zi,laundromat,l4_zi.png,c,1,551,64102,121462,28,Woman
459432,OSS,v7,1536,-0.8375477063103905,746,1536,864,2-15-2023,9-54-18,1,8,small,classroom,scaled,scaled,binderclip.png,1,zi,classroom,c1_zi.png,1,1,zi,classroom,c5_zi.png,c,1,617,64102,121462,28,Woman
459432,OSS,v7,1536,-1.5027056365444855,746,1536,864,2-15-2023,9-54-18,1,9,small,laundromat,misscaled,misscaled,coins.png,1,zo,laundromat,l4_zo.png,1,1,zo,laundromat,l2_zo.png,c,1,433,64102,121462,28,Woman
459432,OSS,v7,1536,-0.1290099110610286,746,1536,864,2-15-2023,9-54-18,1,10,large,laundromat,scaled,misscaled,shirt.png,0,zi,kitchen,k3_zi.png,0,1,zo,kitchen,k2_zo.png,c,1,813,64102,121462,28,Woman
459432,OSS,v7,1536,-0.9315374138434692,746,1536,864,2-15-2023,9-54-18,1,11,large,bathroom,scaled,scaled,hairdryer.png,1,zo,bathroom,b3_zo.png,1,1,zo,bathroom,b0_zo.png,c,1,591,64102,121462,28,Woman
459432,OSS,v7,1536,0.5397630079243386,746,1536,864,2-15-2023,9-54-18,1,12,small,kitchen,scaled,scaled,saltshaker.png,0,zi,bathroom,b3_zi.png,1,1,zi,bathroom,b2_zi.png,c,1,998,64102,121462,28,Woman
459432,OSS,v7,1536,-1.0363720876303646,746,1536,864,2-15-2023,9-54-18,1,13,large,kitchen,scaled,scaled,kettle.png,0,zo,laundromat,l5_zo.png,1,0,zo,bathroom,b4_zo.png,m,1,562,64102,121462,28,Woman
459432,OSS,v7,1536,0.5361480191730663,746,1536,864,2-15-2023,9-54-18,1,14,large,laundromat,scaled,scaled,shorts.png,0,zo,bathroom,b2_zo.png,1,0,zo,classroom,c3_zo.png,m,1,997,64102,121462,28,Woman
459432,OSS,v7,1536,0.7096674792341345,746,1536,864,2-15-2023,9-54-18,1,15,large,classroom,scaled,scaled,computer.png,1,zo,classroom,c1_zo.png,1,0,zo,bathroom,b5_zo.png,m,1,1045,64102,121462,28,Woman
897425,OSS,v7,1366,2.3812203828725553,617,1366,768,2-15-2023,9-38-36,2,0,large,laundromat,scaled,scaled,shorts.png,1,zo,laundromat,l5_zo.png,1,0,zo,bathroom,b1_zo.png,m,1,1542,64357,207828,37,Woman
897425,OSS,v7,1366,1.9602115975638597,617,1366,768,2-15-2023,9-38-36,2,1,small,classroom,scaled,misscaled,eraser.png,0,zo,laundromat,l0_zo.png,0,0,zi,kitchen,k3_zi.png,m,1,1423,64357,207828,37,Woman
897425,OSS,v7,1366,1.2101791397029897,617,1366,768,2-15-2023,9-38-36,2,2,large,laundromat,scaled,misscaled,detergent.png,0,zi,classroom,c2_zi.png,0,0,zo,kitchen,k5_zo.png,m,1,1211,64357,207828,37,Woman
897425,OSS,v7,1366,-0.6578262270448373,617,1366,768,2-15-2023,9-38-36,2,3,small,bathroom,scaled,misscaled,floss.png,1,zo,bathroom,b2_zo.png,0,1,zi,bathroom,b4_zi.png,c,1,683,64357,207828,37,Woman
897425,OSS,v7,1366,-0.6082957817144025,617,1366,768,2-15-2023,9-38-36,2,4,large,laundromat,misscaled,scaled,shirt.png,0,zo,classroom,c5_zo.png,0,0,zi,kitchen,k1_zi.png,m,1,697,64357,207828,37,Woman
897425,OSS,v7,1366,0.1240472313855979,617,1366,768,2-15-2023,9-38-36,2,5,small,classroom,misscaled,misscaled,binderclip.png,0,zo,laundromat,l4_zo.png,1,0,zo,kitchen,k0_zo.png,m,1,904,64357,207828,37,Woman
897425,OSS,v7,1366,-0.6932051165665765,617,1366,768,2-15-2023,9-38-36,2,6,small,bathroom,misscaled,scaled,lipstick.png,0,zi,kitchen,k5_zi.png,0,0,zo,laundromat,l3_zo.png,m,1,673,64357,207828,37,Woman
897425,OSS,v7,1366,-0.28280999811440233,617,1366,768,2-15-2023,9-38-36,2,7,small,bathroom,scaled,scaled,nailclipper.png,1,zi,bathroom,b2_zi.png,1,0,zi,kitchen,k4_zi.png,m,1,789,64357,207828,37,Woman
897425,OSS,v7,1366,-0.46678022362744587,617,1366,768,2-15-2023,9-38-36,2,8,large,kitchen,misscaled,misscaled,toaster.png,0,zi,classroom,c1_zi.png,1,0,zi,laundromat,l2_zi.png,m,1,737,64357,207828,37,Woman
897425,OSS,v7,1366,-0.7002808944709242,617,1366,768,2-15-2023,9-38-36,2,9,large,kitchen,scaled,scaled,kettle.png,0,zo,classroom,c1_zo.png,1,1,zo,classroom,c3_zo.png,c,1,671,64357,207828,37,Woman
897425,OSS,v7,1366,-0.45970444572309804,617,1366,768,2-15-2023,9-38-36,2,10,large,kitchen,misscaled,scaled,pot.png,1,zo,kitchen,k4_zo.png,0,1,zi,kitchen,k0_zi.png,c,1,739,64357,207828,37,Woman
897425,OSS,v7,1366,0.5273665719334242,617,1366,768,2-15-2023,9-38-36,2,11,small,laundromat,scaled,misscaled,socks.png,1,zo,laundromat,l2_zo.png,0,0,zi,bathroom,b0_zi.png,m,1,1018,64357,207828,37,Woman
897425,OSS,v7,1366,-0.8099554519883156,617,1366,768,2-15-2023,9-38-36,2,12,large,bathroom,scaled,misscaled,loofah.png,1,zi,bathroom,b1_zi.png,0,1,zo,bathroom,b0_zo.png,c,1,640,64357,207828,37,Woman
897425,OSS,v7,1366,-0.4915454462926633,617,1366,768,2-15-2023,9-38-36,2,13,small,kitchen,scaled,scaled,sponge.png,1,zi,kitchen,k2_zi.png,1,0,zi,classroom,c0_zi.png,m,1,730,64357,207828,37,Woman
897425,OSS,v7,1366,-0.4278634451535328,617,1366,768,2-15-2023,9-38-36,2,14,large,classroom,scaled,misscaled,computer.png,1,zi,classroom,c4_zi.png,0,0,zo,bathroom,b3_zo.png,m,1,748,64357,207828,37,Woman
897425,OSS,v7,1366,-0.6047578927622286,617,1366,768,2-15-2023,9-38-36,2,15,small,kitchen,misscaled,scaled,spoon.png,0,zi,classroom,c5_zi.png,0,0,zo,laundromat,l1_zo.png,m,1,698,64357,207828,37,Woman
452402,OSS,v7,1536,-0.6011650176197403,739,1536,864,2-15-2023,12-51-10,3,0,small,bathroom,scaled,scaled,lipstick.png,0,zi,classroom,c4_zi.png,1,0,zi,laundromat,l5_zi.png,m,1,758,65060,248129,28,Man
452402,OSS,v7,1536,2.1783391226691764,739,1536,864,2-15-2023,12-51-10,3,1,large,laundromat,misscaled,misscaled,detergent.png,0,zi,bathroom,b0_zi.png,1,0,zi,kitchen,k5_zi.png,m,1,1151,65060,248129,28,Man
452402,OSS,v7,1536,0.2192484181907288,739,1536,864,2-15-2023,12-51-10,3,2,small,laundromat,scaled,misscaled,tidepod.png,1,zo,laundromat,l5_zo.png,0,1,zi,laundromat,l0_zi.png,c,1,874,65060,248129,28,Man
452402,OSS,v7,1536,-0.4455693660005134,739,1536,864,2-15-2023,12-51-10,3,3,large,bathroom,scaled,scaled,hairdryer.png,1,zo,bathroom,b3_zo.png,1,0,zo,classroom,c2_zo.png,m,1,780,65060,248129,28,Man
452402,OSS,v7,1536,-0.6860353730484094,739,1536,864,2-15-2023,12-51-10,3,4,large,classroom,misscaled,misscaled,computer.png,0,zi,laundromat,l1_zi.png,1,1,zi,laundromat,l2_zi.png,c,1,746,65060,248129,28,Man
452402,OSS,v7,1536,0.579947428762573,739,1536,864,2-15-2023,12-51-10,3,5,large,kitchen,misscaled,scaled,kettle.png,0,zo,laundromat,l2_zo.png,0,0,zi,bathroom,b5_zi.png,c,0,925,65060,248129,28,Man
452402,OSS,v7,1536,1.5771741050494363,739,1536,864,2-15-2023,12-51-10,3,6,large,laundromat,misscaled,scaled,shorts.png,1,zo,laundromat,l3_zo.png,0,0,zi,bathroom,b1_zi.png,c,0,1066,65060,248129,28,Man
452402,OSS,v7,1536,-0.5092221325720153,739,1536,864,2-15-2023,12-51-10,3,7,small,kitchen,misscaled,misscaled,saltshaker.png,0,zo,bathroom,b1_zo.png,1,0,zo,classroom,c1_zo.png,m,1,771,65060,248129,28,Man
452402,OSS,v7,1536,1.768132404763942,739,1536,864,2-15-2023,12-51-10,3,8,small,kitchen,scaled,scaled,spoon.png,1,zi,kitchen,k4_zi.png,1,1,zi,kitchen,k0_zi.png,c,1,1093,65060,248129,28,Man
452402,OSS,v7,1536,-0.7355430803817998,739,1536,864,2-15-2023,12-51-10,3,9,small,kitchen,scaled,misscaled,sponge.png,1,zo,kitchen,k5_zo.png,0,1,zi,kitchen,k3_zi.png,c,1,739,65060,248129,28,Man
452402,OSS,v7,1536,-0.7072529619055767,739,1536,864,2-15-2023,12-51-10,3,10,large,bathroom,scaled,scaled,tissuebox.png,0,zo,laundromat,l0_zo.png,1,0,zo,kitchen,k0_zo.png,m,1,743,65060,248129,28,Man
452402,OSS,v7,1536,-0.7991958469533018,739,1536,864,2-15-2023,12-51-10,3,11,small,laundromat,scaled,scaled,coins.png,1,zi,laundromat,l3_zi.png,1,0,zi,kitchen,k2_zi.png,m,1,730,65060,248129,28,Man
452402,OSS,v7,1536,-0.9052837912391383,739,1536,864,2-15-2023,12-51-10,3,12,large,laundromat,scaled,misscaled,shirt.png,1,zi,laundromat,l4_zi.png,0,0,zo,classroom,c0_zo.png,m,1,715,65060,248129,28,Man
452402,OSS,v7,1536,-0.40313418828617875,739,1536,864,2-15-2023,12-51-10,3,13,large,bathroom,misscaled,misscaled,loofah.png,1,zi,bathroom,b2_zi.png,1,1,zi,bathroom,b3_zi.png,c,1,786,65060,248129,28,Man
452402,OSS,v7,1536,0.021217588857167305,739,1536,864,2-15-2023,12-51-10,3,14,small,classroom,scaled,scaled,paperclip.png,0,zi,bathroom,b4_zi.png,1,0,zi,kitchen,k1_zi.png,m,1,846,65060,248129,28,Man
452402,OSS,v7,1536,-0.5516573102863499,739,1536,864,2-15-2023,12-51-10,3,15,small,bathroom,misscaled,misscaled,nailclipper.png,0,zo,kitchen,k4_zo.png,1,0,zo,laundromat,l1_zo.png,m,1,765,65060,248129,28,Man
607651,OSS,v7,1920,1.019673015052881,961,1920,1080,2-15-2023,13-35-20,1,0,large,classroom,scaled,scaled,computer.png,1,zo,classroom,c4_zo.png,1,0,zo,laundromat,l2_zo.png,m,1,846,61036,175394,38,Man
607651,OSS,v7,1920,-0.2528470947303699,961,1920,1080,2-15-2023,13-35-20,1,1,small,laundromat,scaled,misscaled,socks.png,0,zo,classroom,c2_zo.png,0,0,zi,kitchen,k3_zi.png,m,1,606,61036,175394,38,Man
607651,OSS,v7,1920,0.05467859846724906,961,1920,1080,2-15-2023,13-35-20,1,2,large,laundromat,scaled,misscaled,shirt.png,1,zi,laundromat,l5_zi.png,0,1,zo,laundromat,l3_zo.png,c,1,664,61036,175394,38,Man
607651,OSS,v7,1920,-0.36949477146050125,961,1920,1080,2-15-2023,13-35-20,1,3,small,laundromat,misscaled,misscaled,tidepod.png,1,zo,laundromat,l5_zo.png,1,1,zo,laundromat,l0_zo.png,c,1,584,61036,175394,38,Man
607651,OSS,v7,1920,-0.5338619523075044,961,1920,1080,2-15-2023,13-35-20,1,4,small,kitchen,misscaled,scaled,sponge.png,0,zi,laundromat,l4_zi.png,0,0,zo,classroom,c1_zo.png,m,1,553,61036,175394,38,Man
607651,OSS,v7,1920,3.257187541421764,961,1920,1080,2-15-2023,13-35-20,1,5,large,classroom,scaled,misscaled,powerstrip.png,0,zi,laundromat,l0_zi.png,0,1,zo,laundromat,l1_zo.png,c,1,1268,61036,175394,38,Man
607651,OSS,v7,1920,-0.9368266537388672,961,1920,1080,2-15-2023,13-35-20,1,6,small,laundromat,misscaled,misscaled,coins.png,0,zo,classroom,c5_zo.png,1,0,zo,bathroom,b5_zo.png,m,1,477,61036,175394,38,Man
607651,OSS,v7,1920,-0.3217752673436293,961,1920,1080,2-15-2023,13-35-20,1,7,large,classroom,scaled,misscaled,notebook.png,1,zi,classroom,c1_zi.png,0,0,zo,kitchen,k5_zo.png,m,1,593,61036,175394,38,Man
607651,OSS,v7,1920,-0.5179554509352138,961,1920,1080,2-15-2023,13-35-20,1,8,small,kitchen,scaled,scaled,saltshaker.png,0,zi,classroom,c4_zi.png,1,0,zi,laundromat,l1_zi.png,m,1,556,61036,175394,38,Man
607651,OSS,v7,1920,-0.6929269660304108,961,1920,1080,2-15-2023,13-35-20,1,9,small,classroom,scaled,misscaled,eraser.png,1,zo,classroom,c3_zo.png,0,0,zi,kitchen,k5_zi.png,m,1,523,61036,175394,38,Man
607651,OSS,v7,1920,0.11830460395641161,961,1920,1080,2-15-2023,13-35-20,1,10,large,bathroom,scaled,misscaled,hairdryer.png,0,zi,kitchen,k1_zi.png,0,1,zo,kitchen,k3_zo.png,c,1,676,61036,175394,38,Man
607651,OSS,v7,1920,-0.27935793035085427,961,1920,1080,2-15-2023,13-35-20,1,11,large,bathroom,scaled,scaled,tissuebox.png,0,zo,laundromat,l4_zo.png,1,0,zo,classroom,c0_zo.png,m,1,601,61036,175394,38,Man
607651,OSS,v7,1920,0.6750321519865838,961,1920,1080,2-15-2023,13-35-20,1,12,large,kitchen,misscaled,scaled,toaster.png,0,zo,bathroom,b2_zo.png,0,1,zi,bathroom,b0_zi.png,c,1,781,61036,175394,38,Man
607651,OSS,v7,1920,-0.5285597851834076,961,1920,1080,2-15-2023,13-35-20,1,13,small,classroom,scaled,scaled,binderclip.png,1,zi,classroom,c0_zi.png,1,0,zi,kitchen,k2_zi.png,m,1,554,61036,175394,38,Man
607651,OSS,v7,1920,-0.16271025362072297,961,1920,1080,2-15-2023,13-35-20,1,14,small,kitchen,scaled,scaled,spoon.png,1,zi,kitchen,k0_zi.png,1,0,zi,bathroom,b4_zi.png,m,1,623,61036,175394,38,Man
607651,OSS,v7,1920,-0.5285597851834076,961,1920,1080,2-15-2023,13-35-20,1,15,large,kitchen,scaled,scaled,kettle.png,1,zo,kitchen,k4_zo.png,1,1,zo,kitchen,k1_zo.png,c,1,554,61036,175394,38,Man
420113,OSS,v7,1366,0.6646818025139303,649,1366,768,2-15-2023,13-1-38,2,0,small,classroom,misscaled,scaled,paperclip.png,0,zi,kitchen,k1_zi.png,0,0,zo,bathroom,b0_zo.png,m,1,848,63986,168147,31,Woman
420113,OSS,v7,1366,0.283957142362753,649,1366,768,2-15-2023,13-1-38,2,1,small,laundromat,scaled,misscaled,socks.png,1,zo,laundromat,l2_zo.png,0,0,zi,kitchen,k3_zi.png,m,1,788,63986,168147,31,Woman
420113,OSS,v7,1366,-0.7757264950580236,649,1366,768,2-15-2023,13-1-38,2,2,small,laundromat,misscaled,scaled,coins.png,0,zi,classroom,c1_zi.png,0,0,zo,kitchen,k3_zo.png,c,0,621,63986,168147,31,Woman
420113,OSS,v7,1366,-0.49652841094716027,649,1366,768,2-15-2023,13-1-38,2,3,large,bathroom,scaled,scaled,hairdryer.png,1,zo,bathroom,b1_zo.png,1,1,zo,bathroom,b3_zo.png,m,0,665,63986,168147,31,Woman
420113,OSS,v7,1366,-0.04600422976826725,649,1366,768,2-15-2023,13-1-38,2,4,large,laundromat,scaled,misscaled,shorts.png,0,zi,classroom,c4_zi.png,0,0,zo,kitchen,k2_zo.png,m,1,736,63986,168147,31,Woman
420113,OSS,v7,1366,1.9972181130430504,649,1366,768,2-15-2023,13-1-38,2,5,large,bathroom,scaled,misscaled,tissuebox.png,1,zi,bathroom,b5_zi.png,0,0,zo,kitchen,k4_zo.png,c,0,1058,63986,168147,31,Woman
420113,OSS,v7,1366,1.5149668768515594,649,1366,768,2-15-2023,13-1-38,2,6,large,kitchen,scaled,scaled,kettle.png,1,zo,kitchen,k0_zo.png,1,0,zo,bathroom,b5_zo.png,m,1,982,63986,168147,31,Woman
420113,OSS,v7,1366,0.150703511309841,649,1366,768,2-15-2023,13-1-38,2,7,large,kitchen,misscaled,misscaled,pot.png,1,zi,kitchen,k2_zi.png,1,1,zi,kitchen,k4_zi.png,c,1,767,63986,168147,31,Woman
420113,OSS,v7,1366,-0.16022162781362043,649,1366,768,2-15-2023,13-1-38,2,8,small,laundromat,misscaled,misscaled,tidepod.png,0,zo,bathroom,b4_zo.png,1,1,zo,bathroom,b2_zo.png,c,1,718,63986,168147,31,Woman
420113,OSS,v7,1366,-0.3315477248816502,649,1366,768,2-15-2023,13-1-38,2,9,large,classroom,scaled,misscaled,notebook.png,0,zi,laundromat,l1_zi.png,0,0,zo,kitchen,k1_zo.png,m,1,691,63986,168147,31,Woman
420113,OSS,v7,1366,1.2738412587558139,649,1366,768,2-15-2023,13-1-38,2,10,large,bathroom,misscaled,scaled,loofah.png,0,zo,classroom,c2_zo.png,0,1,zi,classroom,c0_zi.png,c,1,944,63986,168147,31,Woman
420113,OSS,v7,1366,-1.270668553254554,649,1366,768,2-15-2023,13-1-38,2,11,small,bathroom,misscaled,misscaled,lipstick.png,0,zo,classroom,c5_zo.png,1,1,zo,classroom,c4_zo.png,c,1,543,63986,168147,31,Woman
420113,OSS,v7,1366,-1.035888346161328,649,1366,768,2-15-2023,13-1-38,2,12,small,classroom,misscaled,misscaled,eraser.png,1,zo,classroom,c3_zo.png,1,0,zo,kitchen,k5_zo.png,m,1,580,63986,168147,31,Woman
420113,OSS,v7,1366,-0.217330326836297,649,1366,768,2-15-2023,13-1-38,2,13,small,classroom,scaled,scaled,binderclip.png,1,zi,classroom,c5_zi.png,1,0,zi,kitchen,k5_zi.png,m,1,709,63986,168147,31,Woman
420113,OSS,v7,1366,-1.6767748574158097,649,1366,768,2-15-2023,13-1-38,2,14,small,bathroom,scaled,scaled,nailclipper.png,1,zi,bathroom,b4_zi.png,1,1,zi,bathroom,b3_zi.png,c,1,479,63986,168147,31,Woman
420113,OSS,v7,1366,0.1253218672997625,649,1366,768,2-15-2023,13-1-38,2,15,large,laundromat,misscaled,scaled,shirt.png,0,zo,classroom,c0_zo.png,0,1,zi,classroom,c2_zi.png,c,1,763,63986,168147,31,Woman
276263,OSS,v7,1294,-0.9676331031870365,711,1440,900,2-16-2023,15-29-57,1,0,large,bathroom,misscaled,scaled,tissuebox.png,0,zo,classroom,c4_zo.png,0,0,zi,kitchen,k5_zi.png,m,1,893,70538,172371,30,Woman
276263,OSS,v7,1294,-1.3422007560336313,711,1440,900,2-16-2023,15-29-57,1,1,large,bathroom,misscaled,scaled,hairdryer.png,1,zo,bathroom,b2_zo.png,0,1,zi,bathroom,b3_zi.png,c,1,779,70538,172371,30,Woman
276263,OSS,v7,1294,0.1790696235099949,711,1440,900,2-16-2023,15-29-57,1,2,small,bathroom,misscaled,misscaled,lipstick.png,0,zo,classroom,c5_zo.png,1,0,zo,kitchen,k3_zo.png,c,0,1242,70538,172371,30,Woman
276263,OSS,v7,1294,0.0476423768971546,711,1440,900,2-16-2023,15-29-57,1,3,small,kitchen,scaled,scaled,saltshaker.png,0,zi,classroom,c4_zi.png,1,0,zi,bathroom,b1_zi.png,m,1,1202,70538,172371,30,Woman
276263,OSS,v7,1294,-0.5470659140259476,711,1440,900,2-16-2023,15-29-57,1,4,small,classroom,misscaled,misscaled,binderclip.png,1,zo,classroom,c0_zo.png,1,0,zo,kitchen,k2_zo.png,m,1,1021,70538,172371,30,Woman
276263,OSS,v7,1294,0.35321072527200825,711,1440,900,2-16-2023,15-29-57,1,5,large,bathroom,scaled,misscaled,loofah.png,0,zi,laundromat,l1_zi.png,0,1,zo,laundromat,l3_zo.png,c,1,1295,70538,172371,30,Woman
276263,OSS,v7,1294,-0.3269252759494402,711,1440,900,2-16-2023,15-29-57,1,6,small,kitchen,scaled,scaled,spoon.png,0,zi,bathroom,b0_zi.png,1,1,zi,bathroom,b5_zi.png,c,1,1088,70538,172371,30,Woman
276263,OSS,v7,1294,-0.5799227256791577,711,1440,900,2-16-2023,15-29-57,1,7,large,kitchen,misscaled,misscaled,kettle.png,0,zi,classroom,c1_zi.png,1,0,zi,laundromat,l4_zi.png,m,1,1011,70538,172371,30,Woman
276263,OSS,v7,1294,0.2842114208002671,711,1440,900,2-16-2023,15-29-57,1,8,small,kitchen,scaled,misscaled,sponge.png,1,zo,kitchen,k4_zo.png,0,1,zi,kitchen,k3_zi.png,c,1,1274,70538,172371,30,Woman
276263,OSS,v7,1294,-1.0530608134853827,711,1440,900,2-16-2023,15-29-57,1,9,small,bathroom,misscaled,scaled,floss.png,1,zi,bathroom,b2_zi.png,0,0,zo,classroom,c2_zo.png,m,1,867,70538,172371,30,Woman
276263,OSS,v7,1294,-0.5339231893646637,711,1440,900,2-16-2023,15-29-57,1,10,large,kitchen,misscaled,misscaled,pot.png,1,zi,kitchen,k4_zi.png,1,1,zi,kitchen,k0_zi.png,c,1,1025,70538,172371,30,Woman
276263,OSS,v7,1294,0.5273518270340216,711,1440,900,2-16-2023,15-29-57,1,11,large,kitchen,scaled,scaled,toaster.png,1,zo,kitchen,k0_zo.png,1,1,zo,kitchen,k5_zo.png,c,1,1348,70538,172371,30,Woman
276263,OSS,v7,1294,-0.5372088705299847,711,1440,900,2-16-2023,15-29-57,1,12,large,laundromat,scaled,scaled,shirt.png,0,zo,classroom,c1_zo.png,1,0,zo,kitchen,k1_zo.png,m,1,1024,70538,172371,30,Woman
276263,OSS,v7,1294,2.6729016279886393,711,1440,900,2-16-2023,15-29-57,1,13,small,bathroom,scaled,misscaled,nailclipper.png,0,zo,classroom,c3_zo.png,0,1,zi,classroom,c5_zi.png,none,0,2001,70538,172371,30,Woman
276263,OSS,v7,1294,0.40578162391714434,711,1440,900,2-16-2023,15-29-57,1,14,small,laundromat,scaled,scaled,coins.png,1,zi,laundromat,l2_zi.png,1,0,zi,kitchen,k2_zi.png,m,1,1311,70538,172371,30,Woman
276263,OSS,v7,1294,1.4177714228360145,711,1440,900,2-16-2023,15-29-57,1,15,large,classroom,misscaled,misscaled,notebook.png,1,zi,classroom,c2_zi.png,1,1,zi,classroom,c0_zi.png,m,0,1619,70538,172371,30,Woman
870197,OSS,v7,1920,-0.15305543632986338,1007,1920,1080,2-15-2023,12-39-25,1,0,small,bathroom,misscaled,misscaled,lipstick.png,1,zo,bathroom,b1_zo.png,1,1,zo,bathroom,b3_zo.png,c,1,884,65950,147959,49,Man
870197,OSS,v7,1920,-0.4128842937598702,1007,1920,1080,2-15-2023,12-39-25,1,1,small,classroom,scaled,scaled,eraser.png,1,zi,classroom,c3_zi.png,1,0,zi,laundromat,l0_zi.png,m,1,804,65950,147959,49,Man
870197,OSS,v7,1920,2.9843780171374688,1007,1920,1080,2-15-2023,12-39-25,1,2,large,bathroom,misscaled,scaled,hairdryer.png,0,zo,kitchen,k0_zo.png,0,0,zi,laundromat,l2_zi.png,m,1,1850,65950,147959,49,Man
870197,OSS,v7,1920,-0.05561961479361083,1007,1920,1080,2-15-2023,12-39-25,1,3,large,classroom,scaled,misscaled,notebook.png,1,zi,classroom,c1_zi.png,0,1,zo,classroom,c4_zo.png,c,1,914,65950,147959,49,Man
870197,OSS,v7,1920,-0.07185891838298625,1007,1920,1080,2-15-2023,12-39-25,1,4,small,classroom,scaled,misscaled,paperclip.png,0,zo,kitchen,k5_zo.png,0,0,zi,laundromat,l4_zi.png,m,1,909,65950,147959,49,Man
870197,OSS,v7,1920,-0.17254260063711388,1007,1920,1080,2-15-2023,12-39-25,1,5,large,classroom,scaled,scaled,computer.png,1,zo,classroom,c1_zo.png,1,1,zo,classroom,c0_zo.png,c,1,878,65950,147959,49,Man
870197,OSS,v7,1920,-0.7993797191870052,1007,1920,1080,2-15-2023,12-39-25,1,6,small,kitchen,misscaled,scaled,spoon.png,0,zi,classroom,c4_zi.png,0,0,zo,laundromat,l2_zo.png,m,1,685,65950,147959,49,Man
870197,OSS,v7,1920,-0.942285590773509,1007,1920,1080,2-15-2023,12-39-25,1,7,large,bathroom,scaled,misscaled,loofah.png,0,zi,kitchen,k1_zi.png,0,1,zo,kitchen,k3_zo.png,c,1,641,65950,147959,49,Man
870197,OSS,v7,1920,0.45429451791277753,1007,1920,1080,2-15-2023,12-39-25,1,8,small,classroom,misscaled,misscaled,binderclip.png,0,zo,kitchen,k2_zo.png,1,1,zo,kitchen,k1_zo.png,c,1,1071,65950,147959,49,Man
870197,OSS,v7,1920,-0.4713457866816217,1007,1920,1080,2-15-2023,12-39-25,1,9,small,kitchen,scaled,scaled,sponge.png,1,zi,kitchen,k5_zi.png,1,0,zi,classroom,c5_zi.png,m,1,786,65950,147959,49,Man
870197,OSS,v7,1920,0.12626058540739393,1007,1920,1080,2-15-2023,12-39-25,1,10,small,bathroom,scaled,scaled,nailclipper.png,0,zi,kitchen,k0_zi.png,1,1,zi,kitchen,k3_zi.png,c,1,970,65950,147959,49,Man
870197,OSS,v7,1920,-1.3937382305581458,1007,1920,1080,2-15-2023,12-39-25,1,11,large,laundromat,scaled,scaled,shirt.png,1,zo,laundromat,l4_zo.png,1,1,zo,laundromat,l3_zo.png,m,0,502,65950,147959,49,Man
870197,OSS,v7,1920,0.4283116321697768,1007,1920,1080,2-15-2023,12-39-25,1,12,large,kitchen,misscaled,misscaled,pot.png,1,zi,kitchen,k4_zi.png,1,0,zi,bathroom,b5_zi.png,m,1,1063,65950,147959,49,Man
870197,OSS,v7,1920,0.21070496407214614,1007,1920,1080,2-15-2023,12-39-25,1,13,small,laundromat,misscaled,misscaled,tidepod.png,1,zo,laundromat,l1_zo.png,1,0,zo,classroom,c5_zo.png,m,1,996,65950,147959,49,Man
870197,OSS,v7,1920,1.0519008900017932,1007,1920,1080,2-15-2023,12-39-25,1,14,large,laundromat,misscaled,scaled,detergent.png,0,zo,kitchen,k4_zo.png,0,0,zi,bathroom,b3_zi.png,m,1,1255,65950,147959,49,Man
870197,OSS,v7,1920,-0.7831404155976298,1007,1920,1080,2-15-2023,12-39-25,1,15,large,laundromat,misscaled,misscaled,shorts.png,0,zi,classroom,c0_zi.png,1,1,zi,classroom,c2_zi.png,c,1,690,65950,147959,49,Man
418905,OSS,v7,1881,0.651494549518793,880,1920,1080,2-15-2023,8-53-17,1,0,small,classroom,scaled,scaled,binderclip.png,1,zi,classroom,c4_zi.png,1,0,zi,laundromat,l4_zi.png,c,0,998,64825,124148,35,Man
418905,OSS,v7,1881,-0.9485993664379446,880,1920,1080,2-15-2023,8-53-17,1,1,large,classroom,misscaled,scaled,computer.png,0,zo,bathroom,b0_zo.png,0,0,zi,kitchen,k3_zi.png,c,0,586,64825,124148,35,Man
418905,OSS,v7,1881,-0.1563198546535405,880,1920,1080,2-15-2023,8-53-17,1,2,small,laundromat,scaled,scaled,tidepod.png,0,zi,bathroom,b1_zi.png,1,1,zi,bathroom,b2_zi.png,c,1,790,64825,124148,35,Man
418905,OSS,v7,1881,0.022331407807648647,880,1920,1080,2-15-2023,8-53-17,1,3,large,laundromat,scaled,misscaled,detergent.png,0,zi,kitchen,k4_zi.png,0,0,zo,bathroom,b2_zo.png,m,1,836,64825,124148,35,Man
418905,OSS,v7,1881,0.4223548867968331,880,1920,1080,2-15-2023,8-53-17,1,4,small,kitchen,scaled,misscaled,spoon.png,1,zo,kitchen,k4_zo.png,0,0,zi,bathroom,b0_zi.png,m,1,939,64825,124148,35,Man
418905,OSS,v7,1881,1.2418204602601137,880,1920,1080,2-15-2023,8-53-17,1,5,large,kitchen,scaled,misscaled,pot.png,1,zi,kitchen,k2_zi.png,0,0,zo,bathroom,b5_zo.png,m,1,1150,64825,124148,35,Man
418905,OSS,v7,1881,-0.29613388614490593,880,1920,1080,2-15-2023,8-53-17,1,6,large,bathroom,scaled,scaled,hairdryer.png,0,zo,laundromat,l0_zo.png,1,0,zo,kitchen,k5_zo.png,m,1,754,64825,124148,35,Man
418905,OSS,v7,1881,-0.21069197801129375,880,1920,1080,2-15-2023,8-53-17,1,7,small,laundromat,scaled,misscaled,socks.png,1,zo,laundromat,l5_zo.png,0,1,zi,laundromat,l0_zi.png,c,1,776,64825,124148,35,Man
418905,OSS,v7,1881,1.9292394484259938,880,1920,1080,2-15-2023,8-53-17,1,8,small,classroom,misscaled,misscaled,paperclip.png,0,zo,kitchen,k0_zo.png,1,1,zo,kitchen,k2_zo.png,c,1,1327,64825,124148,35,Man
418905,OSS,v7,1881,1.2068669523872724,880,1920,1080,2-15-2023,8-53-17,1,9,small,bathroom,scaled,scaled,lipstick.png,0,zi,classroom,c3_zi.png,1,1,zi,classroom,c0_zi.png,c,1,1141,64825,124148,35,Man
418905,OSS,v7,1881,-0.816552781140544,880,1920,1080,2-15-2023,8-53-17,1,10,large,bathroom,scaled,misscaled,loofah.png,1,zi,bathroom,b4_zi.png,0,0,zo,kitchen,k3_zo.png,m,1,620,64825,124148,35,Man
418905,OSS,v7,1881,-1.5894136774400363,880,1920,1080,2-15-2023,8-53-17,1,11,large,laundromat,misscaled,scaled,shirt.png,1,zo,laundromat,l2_zo.png,0,1,zi,laundromat,l5_zi.png,c,1,421,64825,124148,35,Man
418905,OSS,v7,1881,-1.6165997391189129,880,1920,1080,2-15-2023,8-53-17,1,12,large,kitchen,misscaled,misscaled,toaster.png,0,zi,laundromat,l3_zi.png,1,1,zi,laundromat,l1_zi.png,c,1,414,64825,124148,35,Man
418905,OSS,v7,1881,0.10000586974729611,880,1920,1080,2-15-2023,8-53-17,1,13,small,kitchen,misscaled,scaled,sponge.png,1,zi,kitchen,k0_zi.png,0,1,zo,kitchen,k1_zo.png,c,1,856,64825,124148,35,Man
418905,OSS,v7,1881,0.6631457188097402,880,1920,1080,2-15-2023,8-53-17,1,14,small,laundromat,misscaled,misscaled,coins.png,0,zo,classroom,c1_zo.png,1,1,zo,classroom,c5_zo.png,c,1,1001,64825,124148,35,Man
418905,OSS,v7,1881,-0.6029480108065134,880,1920,1080,2-15-2023,8-53-17,1,15,large,laundromat,scaled,scaled,shorts.png,1,zo,laundromat,l3_zo.png,1,0,zo,bathroom,b1_zo.png,m,1,675,64825,124148,35,Man
851599,OSS,v7,2560,-0.6335978301408032,1329,2560,1440,2-16-2023,9-29-16,2,0,small,classroom,scaled,misscaled,eraser.png,0,zo,kitchen,k5_zo.png,0,1,zi,kitchen,k4_zi.png,c,1,551,60826,179764,28,Woman
851599,OSS,v7,2560,0.3065339222915841,1329,2560,1440,2-16-2023,9-29-16,2,1,large,kitchen,misscaled,scaled,pot.png,0,zo,classroom,c5_zo.png,0,1,zi,classroom,c2_zi.png,c,1,634,60826,179764,28,Woman
851599,OSS,v7,2560,1.6091261093966989,1329,2560,1440,2-16-2023,9-29-16,2,2,small,kitchen,misscaled,scaled,saltshaker.png,1,zi,kitchen,k3_zi.png,0,0,zo,laundromat,l0_zo.png,m,1,749,60826,179764,28,Woman
851599,OSS,v7,2560,-0.22582984113398458,1329,2560,1440,2-16-2023,9-29-16,2,3,small,kitchen,misscaled,misscaled,sponge.png,1,zo,kitchen,k1_zo.png,1,1,zo,kitchen,k4_zo.png,c,1,587,60826,179764,28,Woman
851599,OSS,v7,2560,-0.42971383563739385,1329,2560,1440,2-16-2023,9-29-16,2,4,small,classroom,misscaled,scaled,binderclip.png,1,zi,classroom,c4_zi.png,0,0,zo,bathroom,b0_zo.png,m,1,569,60826,179764,28,Woman
851599,OSS,v7,2560,0.872878351467721,1329,2560,1440,2-16-2023,9-29-16,2,5,large,bathroom,misscaled,misscaled,loofah.png,1,zi,bathroom,b4_zi.png,1,0,zi,kitchen,k1_zi.png,m,1,684,60826,179764,28,Woman
851599,OSS,v7,2560,0.27255325654101586,1329,2560,1440,2-16-2023,9-29-16,2,6,large,kitchen,misscaled,misscaled,toaster.png,0,zi,classroom,c1_zi.png,1,1,zi,classroom,c5_zi.png,c,1,631,60826,179764,28,Woman
851599,OSS,v7,2560,-1.19994225931694,1329,2560,1440,2-16-2023,9-29-16,2,7,small,laundromat,scaled,scaled,coins.png,0,zi,bathroom,b5_zi.png,1,0,zi,kitchen,k0_zi.png,c,0,501,60826,179764,28,Woman
851599,OSS,v7,2560,1.5411647778955624,1329,2560,1440,2-16-2023,9-29-16,2,8,large,laundromat,scaled,scaled,shorts.png,1,zo,laundromat,l2_zo.png,1,1,zo,laundromat,l1_zo.png,c,1,743,60826,179764,28,Woman
851599,OSS,v7,2560,0.6576674683807889,1329,2560,1440,2-16-2023,9-29-16,2,9,large,laundromat,misscaled,misscaled,shirt.png,0,zi,classroom,c3_zi.png,1,0,zi,kitchen,k5_zi.png,m,1,665,60826,179764,28,Woman
851599,OSS,v7,2560,-1.32453803373569,1329,2560,1440,2-16-2023,9-29-16,2,10,large,classroom,scaled,scaled,computer.png,0,zo,kitchen,k3_zo.png,1,1,zo,kitchen,k2_zo.png,c,1,490,60826,179764,28,Woman
851599,OSS,v7,2560,-0.939423821895917,1329,2560,1440,2-16-2023,9-29-16,2,11,small,kitchen,misscaled,misscaled,spoon.png,1,zo,kitchen,k0_zo.png,1,0,zo,classroom,c3_zo.png,m,1,524,60826,179764,28,Woman
851599,OSS,v7,2560,-0.10123406671523447,1329,2560,1440,2-16-2023,9-29-16,2,12,large,bathroom,misscaled,scaled,tissuebox.png,1,zo,bathroom,b1_zo.png,0,1,zi,bathroom,b2_zi.png,c,1,598,60826,179764,28,Woman
851599,OSS,v7,2560,1.3372807833921532,1329,2560,1440,2-16-2023,9-29-16,2,13,small,classroom,misscaled,misscaled,paperclip.png,0,zo,bathroom,b5_zo.png,1,1,zo,bathroom,b2_zo.png,c,1,725,60826,179764,28,Woman
851599,OSS,v7,2560,-1.4378069195709176,1329,2560,1440,2-16-2023,9-29-16,2,14,small,bathroom,scaled,scaled,floss.png,0,zi,laundromat,l1_zi.png,1,0,zi,classroom,c0_zi.png,m,1,480,60826,179764,28,Woman
851599,OSS,v7,2560,-0.30511806121864377,1329,2560,1440,2-16-2023,9-29-16,2,15,large,laundromat,misscaled,misscaled,detergent.png,1,zi,laundromat,l4_zi.png,1,1,zi,laundromat,l3_zi.png,c,1,580,60826,179764,28,Woman
681232,OSS,v7,1920,-0.21906080673391526,961,1920,1080,2-16-2023,12-46-58,1,0,large,laundromat,scaled,misscaled,shorts.png,0,zi,bathroom,b1_zi.png,0,0,zo,classroom,c5_zo.png,m,1,678,61970,109484,40,Man
681232,OSS,v7,1920,0.7597069787355595,961,1920,1080,2-16-2023,12-46-58,1,1,large,laundromat,scaled,misscaled,detergent.png,1,zi,laundromat,l1_zi.png,0,0,zo,kitchen,k2_zo.png,m,1,857,61970,109484,40,Man
681232,OSS,v7,1920,-1.1650207334725697,961,1920,1080,2-16-2023,12-46-58,1,2,large,laundromat,misscaled,misscaled,shirt.png,1,zi,laundromat,l2_zi.png,1,1,zi,laundromat,l5_zi.png,c,1,505,61970,109484,40,Man
681232,OSS,v7,1920,-0.1698490186376847,961,1920,1080,2-16-2023,12-46-58,1,3,large,bathroom,misscaled,misscaled,loofah.png,0,zi,classroom,c3_zi.png,1,0,zi,laundromat,l3_zi.png,m,1,687,61970,109484,40,Man
681232,OSS,v7,1920,1.700198929019077,961,1920,1080,2-16-2023,12-46-58,1,4,small,classroom,scaled,misscaled,eraser.png,0,zo,bathroom,b0_zo.png,0,0,zi,kitchen,k1_zi.png,m,1,1029,61970,109484,40,Man
681232,OSS,v7,1920,-1.0501932279146984,961,1920,1080,2-16-2023,12-46-58,1,5,large,classroom,misscaled,scaled,computer.png,0,zo,laundromat,l1_zo.png,0,1,zi,laundromat,l0_zi.png,c,1,526,61970,109484,40,Man
681232,OSS,v7,1920,-0.08782937181063373,961,1920,1080,2-16-2023,12-46-58,1,6,large,kitchen,misscaled,scaled,kettle.png,1,zo,kitchen,k0_zo.png,0,1,zi,kitchen,k3_zi.png,c,1,702,61970,109484,40,Man
681232,OSS,v7,1920,-0.5635433234075293,961,1920,1080,2-16-2023,12-46-58,1,7,large,bathroom,scaled,scaled,tissuebox.png,0,zo,laundromat,l5_zo.png,1,0,zo,classroom,c0_zo.png,m,1,615,61970,109484,40,Man
681232,OSS,v7,1920,0.08714587475374165,961,1920,1080,2-16-2023,12-46-58,1,8,small,classroom,scaled,scaled,paperclip.png,1,zi,classroom,c0_zi.png,1,1,zi,classroom,c4_zi.png,c,1,734,61970,109484,40,Man
681232,OSS,v7,1920,-0.6893067818756741,961,1920,1080,2-16-2023,12-46-58,1,9,large,classroom,misscaled,scaled,notebook.png,1,zo,classroom,c3_zo.png,0,1,zi,classroom,c2_zi.png,c,1,592,61970,109484,40,Man
681232,OSS,v7,1920,-0.91349381653628,961,1920,1080,2-16-2023,12-46-58,1,10,small,classroom,scaled,misscaled,binderclip.png,0,zo,laundromat,l3_zo.png,0,0,zi,kitchen,k2_zi.png,m,1,551,61970,109484,40,Man
681232,OSS,v7,1920,-0.7603904757924516,961,1920,1080,2-16-2023,12-46-58,1,11,small,kitchen,misscaled,scaled,saltshaker.png,0,zi,bathroom,b5_zi.png,0,1,zo,bathroom,b1_zo.png,c,1,579,61970,109484,40,Man
681232,OSS,v7,1920,-0.7931983345232719,961,1920,1080,2-16-2023,12-46-58,1,12,small,kitchen,scaled,scaled,spoon.png,0,zi,bathroom,b0_zi.png,1,1,zi,bathroom,b4_zi.png,c,1,573,61970,109484,40,Man
681232,OSS,v7,1920,2.072021327968375,961,1920,1080,2-16-2023,12-46-58,1,13,small,bathroom,scaled,scaled,nailclipper.png,1,zi,bathroom,b3_zi.png,1,1,zi,bathroom,b2_zi.png,c,1,1097,61970,109484,40,Man
681232,OSS,v7,1920,1.2463568832427285,961,1920,1080,2-16-2023,12-46-58,1,14,small,bathroom,scaled,misscaled,floss.png,1,zo,bathroom,b2_zo.png,0,0,zi,kitchen,k5_zi.png,m,1,946,61970,109484,40,Man
681232,OSS,v7,1920,0.546455896985227,961,1920,1080,2-16-2023,12-46-58,1,15,small,laundromat,scaled,misscaled,coins.png,1,zo,laundromat,l0_zo.png,0,0,zi,kitchen,k4_zi.png,m,1,818,61970,109484,40,Man
350611,OSS,v7,1920,1.280411963906105,929,1920,1080,2-15-2023,10-4-15,2,0,small,bathroom,scaled,scaled,lipstick.png,0,zi,kitchen,k3_zi.png,1,1,zi,kitchen,k1_zi.png,c,1,994,63720,176221,52,Man
350611,OSS,v7,1920,2.179074854407965,929,1920,1080,2-15-2023,10-4-15,2,1,small,kitchen,misscaled,misscaled,saltshaker.png,1,zo,kitchen,k5_zo.png,1,0,zo,classroom,c2_zo.png,m,1,1117,63720,176221,52,Man
350611,OSS,v7,1920,-0.8456929233787825,929,1920,1080,2-15-2023,10-4-15,2,2,large,kitchen,scaled,misscaled,kettle.png,1,zi,kitchen,k0_zi.png,0,1,zo,kitchen,k3_zo.png,c,1,703,63720,176221,52,Man
350611,OSS,v7,1920,-0.34887116277612845,929,1920,1080,2-15-2023,10-4-15,2,3,large,bathroom,misscaled,misscaled,loofah.png,1,zi,bathroom,b5_zi.png,1,1,zi,bathroom,b1_zi.png,c,1,771,63720,176221,52,Man
350611,OSS,v7,1920,-1.4959449335793151,929,1920,1080,2-15-2023,10-4-15,2,4,large,classroom,scaled,misscaled,computer.png,0,zi,kitchen,k5_zi.png,0,1,zo,kitchen,k0_zo.png,c,1,614,63720,176221,52,Man
350611,OSS,v7,1920,0.6666909655145911,929,1920,1080,2-15-2023,10-4-15,2,5,large,classroom,misscaled,scaled,notebook.png,1,zo,classroom,c4_zo.png,0,0,zi,bathroom,b2_zi.png,m,1,910,63720,176221,52,Man
350611,OSS,v7,1920,-0.334258758052521,929,1920,1080,2-15-2023,10-4-15,2,6,small,bathroom,scaled,misscaled,floss.png,0,zo,laundromat,l0_zo.png,0,1,zi,laundromat,l5_zi.png,c,1,773,63720,176221,52,Man
350611,OSS,v7,1920,-0.7360998879517265,929,1920,1080,2-15-2023,10-4-15,2,7,large,bathroom,misscaled,scaled,tissuebox.png,1,zo,bathroom,b2_zo.png,0,0,zi,classroom,c5_zi.png,m,1,718,63720,176221,52,Man
350611,OSS,v7,1920,-0.04201066358037149,929,1920,1080,2-15-2023,10-4-15,2,8,large,laundromat,scaled,scaled,shirt.png,0,zo,bathroom,b3_zo.png,1,1,zo,bathroom,b1_zo.png,c,1,813,63720,176221,52,Man
350611,OSS,v7,1920,-0.03470446121856775,929,1920,1080,2-15-2023,10-4-15,2,9,small,kitchen,scaled,scaled,spoon.png,1,zi,kitchen,k4_zi.png,1,0,zi,laundromat,l3_zi.png,m,1,814,63720,176221,52,Man
350611,OSS,v7,1920,0.31599325214801166,929,1920,1080,2-15-2023,10-4-15,2,10,large,classroom,scaled,misscaled,powerstrip.png,0,zi,kitchen,k2_zi.png,0,0,zo,bathroom,b4_zo.png,m,1,862,63720,176221,52,Man
350611,OSS,v7,1920,-1.0137355777002686,929,1920,1080,2-15-2023,10-4-15,2,11,small,kitchen,scaled,misscaled,sponge.png,1,zo,kitchen,k1_zo.png,0,0,zi,laundromat,l1_zi.png,m,1,680,63720,176221,52,Man
350611,OSS,v7,1920,-0.26850293679628734,929,1920,1080,2-15-2023,10-4-15,2,12,small,bathroom,misscaled,scaled,nailclipper.png,1,zi,bathroom,b3_zi.png,0,1,zo,bathroom,b0_zo.png,c,1,782,63720,176221,52,Man
350611,OSS,v7,1920,-1.0648789942328947,929,1920,1080,2-15-2023,10-4-15,2,13,large,kitchen,misscaled,scaled,pot.png,0,zo,bathroom,b5_zo.png,0,1,zi,bathroom,b4_zi.png,c,1,673,63720,176221,52,Man
350611,OSS,v7,1920,1.4119236064185723,929,1920,1080,2-15-2023,10-4-15,2,14,small,classroom,scaled,misscaled,binderclip.png,0,zo,laundromat,l1_zo.png,0,1,zi,laundromat,l0_zi.png,c,1,1012,63720,176221,52,Man
350611,OSS,v7,1920,0.33060565687161914,929,1920,1080,2-15-2023,10-4-15,2,15,small,classroom,scaled,scaled,eraser.png,0,zi,laundromat,l4_zi.png,1,0,zi,bathroom,b0_zi.png,m,1,864,63720,176221,52,Man
516850,OSS,v7,1536,0.21416716583593945,714,1536,864,2-17-2023,12-49-58,2,0,large,laundromat,misscaled,scaled,shorts.png,1,zo,laundromat,l2_zo.png,0,1,zi,laundromat,l4_zi.png,c,1,599,60482,234736,33,Woman
516850,OSS,v7,1536,-0.05459163050720025,714,1536,864,2-17-2023,12-49-58,2,1,small,kitchen,misscaled,scaled,spoon.png,1,zi,kitchen,k1_zi.png,0,1,zo,kitchen,k3_zo.png,c,1,587,60482,234736,33,Woman
516850,OSS,v7,1536,0.034994634940512984,714,1536,864,2-17-2023,12-49-58,2,2,small,classroom,scaled,misscaled,eraser.png,1,zo,classroom,c3_zo.png,0,0,zi,kitchen,k3_zi.png,m,1,591,60482,234736,33,Woman
516850,OSS,v7,1536,-0.6592989222792646,714,1536,864,2-17-2023,12-49-58,2,3,large,bathroom,scaled,scaled,loofah.png,0,zo,kitchen,k2_zo.png,1,0,zo,classroom,c2_zo.png,m,1,560,60482,234736,33,Woman
516850,OSS,v7,1536,-0.256160727764555,714,1536,864,2-17-2023,12-49-58,2,4,small,kitchen,scaled,misscaled,saltshaker.png,0,zo,classroom,c1_zo.png,0,0,zi,laundromat,l0_zi.png,m,1,578,60482,234736,33,Woman
516850,OSS,v7,1536,0.6397019267125773,714,1536,864,2-17-2023,12-49-58,2,5,small,classroom,misscaled,misscaled,binderclip.png,0,zo,bathroom,b5_zo.png,1,0,zo,laundromat,l0_zo.png,m,1,618,60482,234736,33,Woman
516850,OSS,v7,1536,-1.2864027804132572,714,1536,864,2-17-2023,12-49-58,2,6,large,bathroom,scaled,scaled,tissuebox.png,1,zo,bathroom,b3_zo.png,1,1,zo,bathroom,b1_zo.png,c,1,532,60482,234736,33,Woman
516850,OSS,v7,1536,0.12458090038822622,714,1536,864,2-17-2023,12-49-58,2,7,small,bathroom,scaled,scaled,lipstick.png,1,zi,bathroom,b5_zi.png,1,1,zi,bathroom,b0_zi.png,c,1,595,60482,234736,33,Woman
516850,OSS,v7,1536,-0.4801263913838381,714,1536,864,2-17-2023,12-49-58,2,8,large,kitchen,misscaled,misscaled,kettle.png,1,zi,kitchen,k0_zi.png,1,0,zi,bathroom,b4_zi.png,m,1,568,60482,234736,33,Woman
516850,OSS,v7,1536,-0.7712817540889061,714,1536,864,2-17-2023,12-49-58,2,9,large,bathroom,misscaled,misscaled,hairdryer.png,0,zi,classroom,c4_zi.png,1,1,zi,classroom,c2_zi.png,c,1,555,60482,234736,33,Woman
516850,OSS,v7,1536,-1.6223512758421819,714,1536,864,2-17-2023,12-49-58,2,10,small,classroom,scaled,scaled,paperclip.png,0,zi,bathroom,b3_zi.png,1,1,zi,bathroom,b1_zi.png,c,1,517,60482,234736,33,Woman
516850,OSS,v7,1536,2.3194444038572004,714,1536,864,2-17-2023,12-49-58,2,11,small,kitchen,scaled,scaled,sponge.png,0,zi,classroom,c0_zi.png,1,1,zi,classroom,c1_zi.png,c,1,693,60482,234736,33,Woman
516850,OSS,v7,1536,0.10218433402629791,714,1536,864,2-17-2023,12-49-58,2,12,large,laundromat,scaled,misscaled,detergent.png,1,zi,laundromat,l2_zi.png,0,1,zo,laundromat,l4_zo.png,c,1,594,60482,234736,33,Woman
516850,OSS,v7,1536,-0.4577298250219098,714,1536,864,2-17-2023,12-49-58,2,13,large,classroom,scaled,scaled,computer.png,0,zo,laundromat,l1_zo.png,1,1,zo,laundromat,l3_zo.png,c,1,569,60482,234736,33,Woman
516850,OSS,v7,1536,0.3709431303694376,714,1536,864,2-17-2023,12-49-58,2,14,small,laundromat,scaled,misscaled,coins.png,1,zo,laundromat,l5_zo.png,0,0,zi,classroom,c3_zi.png,c,0,606,60482,234736,33,Woman
516850,OSS,v7,1536,1.781926811170921,714,1536,864,2-17-2023,12-49-58,2,15,large,classroom,scaled,misscaled,powerstrip.png,0,zi,laundromat,l5_zi.png,0,0,zo,bathroom,b4_zo.png,m,1,669,60482,234736,33,Woman
165799,OSS,v7,1920,1.532884521515979,1009,1920,1080,2-15-2023,11-51-19,1,0,small,classroom,scaled,scaled,paperclip.png,0,zi,bathroom,b3_zi.png,1,0,zi,kitchen,k1_zi.png,m,1,1349,67039,135751,40,Man
165799,OSS,v7,1920,0.4939261166602772,1009,1920,1080,2-15-2023,11-51-19,1,1,small,kitchen,scaled,misscaled,saltshaker.png,0,zo,classroom,c0_zo.png,0,0,zi,laundromat,l5_zi.png,m,1,1133,67039,135751,40,Man
165799,OSS,v7,1920,0.017736847768080554,1009,1920,1080,2-15-2023,11-51-19,1,2,large,bathroom,misscaled,scaled,loofah.png,0,zo,classroom,c4_zo.png,0,0,zi,kitchen,k0_zi.png,m,1,1034,67039,135751,40,Man
165799,OSS,v7,1920,-0.08327299714844599,1009,1920,1080,2-15-2023,11-51-19,1,3,large,laundromat,misscaled,misscaled,shirt.png,0,zi,classroom,c4_zi.png,1,0,zi,bathroom,b2_zi.png,m,1,1013,67039,135751,40,Man
165799,OSS,v7,1920,0.13798666314489788,1009,1920,1080,2-15-2023,11-51-19,1,4,large,laundromat,scaled,scaled,shorts.png,0,zo,kitchen,k5_zo.png,1,1,zo,kitchen,k0_zo.png,c,1,1059,67039,135751,40,Man
165799,OSS,v7,1920,1.3452948095281438,1009,1920,1080,2-15-2023,11-51-19,1,5,large,bathroom,scaled,scaled,tissuebox.png,1,zo,bathroom,b1_zo.png,1,1,zo,bathroom,b4_zo.png,c,1,1310,67039,135751,40,Man
165799,OSS,v7,1920,-0.47769239158440685,1009,1920,1080,2-15-2023,11-51-19,1,6,small,classroom,misscaled,scaled,eraser.png,0,zi,kitchen,k2_zi.png,0,0,zo,bathroom,b5_zo.png,m,1,931,67039,135751,40,Man
165799,OSS,v7,1920,2.0042637977931026,1009,1920,1080,2-15-2023,11-51-19,1,7,large,classroom,misscaled,misscaled,powerstrip.png,1,zi,classroom,c3_zi.png,1,1,zi,classroom,c1_zi.png,c,1,1447,67039,135751,40,Man
165799,OSS,v7,1920,-1.1895712986151654,1009,1920,1080,2-15-2023,11-51-19,1,8,small,kitchen,misscaled,misscaled,spoon.png,1,zo,kitchen,k1_zo.png,1,1,zo,kitchen,k3_zo.png,c,1,783,67039,135751,40,Man
165799,OSS,v7,1920,0.11874669268460711,1009,1920,1080,2-15-2023,11-51-19,1,9,small,laundromat,scaled,scaled,coins.png,1,zi,laundromat,l1_zi.png,1,0,zi,kitchen,k5_zi.png,m,1,1055,67039,135751,40,Man
165799,OSS,v7,1920,-0.6364221478818057,1009,1920,1080,2-15-2023,11-51-19,1,10,small,laundromat,misscaled,misscaled,tidepod.png,1,zo,laundromat,l2_zo.png,1,1,zo,laundromat,l1_zo.png,c,1,898,67039,135751,40,Man
165799,OSS,v7,1920,-1.2136212616905289,1009,1920,1080,2-15-2023,11-51-19,1,11,small,bathroom,scaled,scaled,nailclipper.png,1,zi,bathroom,b1_zi.png,1,1,zi,bathroom,b5_zi.png,c,1,778,67039,135751,40,Man
165799,OSS,v7,1920,-1.0933714463137116,1009,1920,1080,2-15-2023,11-51-19,1,12,large,bathroom,scaled,misscaled,hairdryer.png,1,zi,bathroom,b4_zi.png,0,1,zo,bathroom,b2_zo.png,c,1,803,67039,135751,40,Man
165799,OSS,v7,1920,0.02735683299822594,1009,1920,1080,2-15-2023,11-51-19,1,13,large,kitchen,misscaled,scaled,kettle.png,1,zo,kitchen,k4_zo.png,0,0,zi,laundromat,l4_zi.png,m,1,1036,67039,135751,40,Man
165799,OSS,v7,1920,0.3255763751327329,1009,1920,1080,2-15-2023,11-51-19,1,14,small,bathroom,scaled,misscaled,lipstick.png,0,zo,laundromat,l5_zo.png,0,0,zi,kitchen,k4_zi.png,m,1,1098,67039,135751,40,Man
165799,OSS,v7,1920,-1.3098211139919826,1009,1920,1080,2-15-2023,11-51-19,1,15,large,kitchen,scaled,misscaled,toaster.png,0,zi,laundromat,l3_zi.png,0,1,zo,laundromat,l4_zo.png,c,1,758,67039,135751,40,Man
767960,OSS,v7,1920,2.1902371669901384,969,1920,1080,2-16-2023,12-53-58,3,0,large,classroom,scaled,misscaled,powerstrip.png,0,zi,kitchen,k2_zi.png,0,0,zo,bathroom,b3_zo.png,m,1,1450,66115,220976,65,Woman
767960,OSS,v7,1920,0.031525736241136415,969,1920,1080,2-16-2023,12-53-58,3,1,small,laundromat,misscaled,scaled,tidepod.png,0,zi,bathroom,b0_zi.png,0,0,zo,kitchen,k1_zo.png,m,1,945,66115,220976,65,Woman
767960,OSS,v7,1920,-0.25915223859239256,969,1920,1080,2-16-2023,12-53-58,3,2,large,bathroom,scaled,misscaled,tissuebox.png,1,zi,bathroom,b1_zi.png,0,0,zo,classroom,c2_zo.png,m,1,877,66115,220976,65,Woman
767960,OSS,v7,1920,-0.5370061851244423,969,1920,1080,2-16-2023,12-53-58,3,3,large,classroom,scaled,misscaled,notebook.png,1,zi,classroom,c2_zi.png,0,0,zo,laundromat,l5_zo.png,m,1,812,66115,220976,65,Woman
767960,OSS,v7,1920,0.8565382236362996,969,1920,1080,2-16-2023,12-53-58,3,4,small,bathroom,scaled,misscaled,nailclipper.png,0,zo,laundromat,l3_zo.png,0,0,zi,kitchen,k3_zi.png,m,1,1138,66115,220976,65,Woman
767960,OSS,v7,1920,-0.7592893423500822,969,1920,1080,2-16-2023,12-53-58,3,5,large,laundromat,misscaled,scaled,detergent.png,1,zo,laundromat,l4_zo.png,0,1,zi,laundromat,l1_zi.png,c,1,760,66115,220976,65,Woman
767960,OSS,v7,1920,-0.6780704964407138,969,1920,1080,2-16-2023,12-53-58,3,6,large,classroom,scaled,misscaled,computer.png,0,zi,laundromat,l5_zi.png,0,0,zo,bathroom,b0_zo.png,m,1,779,66115,220976,65,Woman
767960,OSS,v7,1920,-0.5455555373254285,969,1920,1080,2-16-2023,12-53-58,3,7,small,laundromat,scaled,misscaled,socks.png,1,zo,laundromat,l1_zo.png,0,0,zi,classroom,c0_zi.png,m,1,810,66115,220976,65,Woman
767960,OSS,v7,1920,-0.6609717920387415,969,1920,1080,2-16-2023,12-53-58,3,8,large,laundromat,scaled,scaled,shirt.png,1,zo,laundromat,l0_zo.png,1,0,zo,bathroom,b5_zo.png,m,1,783,66115,220976,65,Woman
767960,OSS,v7,1920,-0.9901218517767082,969,1920,1080,2-16-2023,12-53-58,3,9,small,classroom,scaled,scaled,binderclip.png,0,zi,laundromat,l2_zi.png,1,1,zi,laundromat,l3_zi.png,c,1,706,66115,220976,65,Woman
767960,OSS,v7,1920,-1.0927140781885418,969,1920,1080,2-16-2023,12-53-58,3,10,small,laundromat,misscaled,scaled,coins.png,1,zi,laundromat,l4_zi.png,0,1,zo,laundromat,l2_zo.png,c,1,682,66115,220976,65,Woman
767960,OSS,v7,1920,1.3566753273939893,969,1920,1080,2-16-2023,12-53-58,3,11,large,kitchen,misscaled,scaled,kettle.png,0,zo,bathroom,b2_zo.png,0,0,zi,laundromat,l0_zi.png,m,1,1255,66115,220976,65,Woman
767960,OSS,v7,1920,1.5832331607201222,969,1920,1080,2-16-2023,12-53-58,3,12,small,classroom,misscaled,misscaled,paperclip.png,1,zo,classroom,c4_zo.png,1,1,zo,classroom,c1_zo.png,m,0,1308,66115,220976,65,Woman
767960,OSS,v7,1920,-0.5412808612249355,969,1920,1080,2-16-2023,12-53-58,3,13,small,kitchen,scaled,misscaled,spoon.png,0,zo,classroom,c0_zo.png,0,0,zi,bathroom,b4_zi.png,m,1,811,66115,220976,65,Woman
767960,OSS,v7,1920,0.5359375160993191,969,1920,1080,2-16-2023,12-53-58,3,14,large,bathroom,misscaled,scaled,loofah.png,0,zo,kitchen,k3_zo.png,0,0,zi,classroom,c1_zi.png,m,1,1063,66115,220976,65,Woman
767960,OSS,v7,1920,-0.48998474801901853,969,1920,1080,2-16-2023,12-53-58,3,15,small,classroom,scaled,scaled,eraser.png,1,zi,classroom,c4_zi.png,1,0,zi,bathroom,b2_zi.png,m,1,823,66115,220976,65,Woman
277356,OSS,v7,1366,1.3192224182328618,657,1366,768,2-15-2023,9-39-56,1,0,large,laundromat,scaled,scaled,shirt.png,0,zo,kitchen,k1_zo.png,1,0,zo,bathroom,b3_zo.png,m,1,1479,66545,126845,29,Man
277356,OSS,v7,1366,0.3562580040408096,657,1366,768,2-15-2023,9-39-56,1,1,small,classroom,scaled,scaled,binderclip.png,1,zi,classroom,c2_zi.png,1,1,zi,classroom,c1_zi.png,c,1,1107,66545,126845,29,Man
277356,OSS,v7,1366,-0.13299004510515236,657,1366,768,2-15-2023,9-39-56,1,2,large,laundromat,scaled,scaled,detergent.png,0,zo,bathroom,b4_zo.png,1,0,zo,kitchen,k5_zo.png,m,1,918,66545,126845,29,Man
277356,OSS,v7,1366,1.270038751916601,657,1366,768,2-15-2023,9-39-56,1,3,small,kitchen,scaled,misscaled,sponge.png,0,zo,bathroom,b5_zo.png,0,1,zi,bathroom,b2_zi.png,c,1,1460,66545,126845,29,Man
277356,OSS,v7,1366,-0.5238707616185929,657,1366,768,2-15-2023,9-39-56,1,4,large,laundromat,scaled,scaled,shorts.png,1,zo,laundromat,l5_zo.png,1,1,zo,laundromat,l1_zo.png,c,1,767,66545,126845,29,Man
277356,OSS,v7,1366,2.688599233038226,657,1366,768,2-15-2023,9-39-56,1,5,small,laundromat,scaled,scaled,tidepod.png,0,zi,bathroom,b1_zi.png,1,0,zi,kitchen,k0_zi.png,none,0,2008,66545,126845,29,Man
277356,OSS,v7,1366,-0.9794668285481659,657,1366,768,2-15-2023,9-39-56,1,6,large,kitchen,misscaled,misscaled,kettle.png,0,zi,classroom,c0_zi.png,1,0,zi,laundromat,l3_zi.png,m,1,591,66545,126845,29,Man
277356,OSS,v7,1366,-0.8836881099322897,657,1366,768,2-15-2023,9-39-56,1,7,small,kitchen,scaled,misscaled,saltshaker.png,0,zo,laundromat,l4_zo.png,0,0,zi,bathroom,b4_zi.png,m,1,628,66545,126845,29,Man
277356,OSS,v7,1366,-0.44103511308594323,657,1366,768,2-15-2023,9-39-56,1,8,large,classroom,scaled,misscaled,powerstrip.png,0,zi,bathroom,b0_zi.png,0,0,zo,kitchen,k0_zo.png,m,1,799,66545,126845,29,Man
277356,OSS,v7,1366,-0.06568608067237452,657,1366,768,2-15-2023,9-39-56,1,9,small,bathroom,scaled,misscaled,lipstick.png,1,zo,bathroom,b0_zo.png,0,1,zi,bathroom,b5_zi.png,c,1,944,66545,126845,29,Man
277356,OSS,v7,1366,-0.8914539519822257,657,1366,768,2-15-2023,9-39-56,1,10,large,kitchen,scaled,misscaled,toaster.png,1,zi,kitchen,k2_zi.png,0,0,zo,laundromat,l2_zo.png,m,1,625,66545,126845,29,Man
277356,OSS,v7,1366,0.1569347247591214,657,1366,768,2-15-2023,9-39-56,1,11,large,bathroom,scaled,misscaled,tissuebox.png,1,zi,bathroom,b3_zi.png,0,1,zo,bathroom,b2_zo.png,c,1,1030,66545,126845,29,Man
277356,OSS,v7,1366,-0.9095742500987428,657,1366,768,2-15-2023,9-39-56,1,12,small,laundromat,misscaled,scaled,socks.png,1,zi,laundromat,l2_zi.png,0,1,zo,laundromat,l0_zo.png,c,1,618,66545,126845,29,Man
277356,OSS,v7,1366,-0.09933806288876344,657,1366,768,2-15-2023,9-39-56,1,13,large,classroom,misscaled,scaled,computer.png,1,zo,classroom,c2_zo.png,0,0,zi,laundromat,l5_zi.png,m,1,931,66545,126845,29,Man
277356,OSS,v7,1366,-0.5549341298183365,657,1366,768,2-15-2023,9-39-56,1,14,small,bathroom,scaled,misscaled,nailclipper.png,1,zo,bathroom,b1_zo.png,0,0,zi,classroom,c5_zi.png,m,1,755,66545,126845,29,Man
277356,OSS,v7,1366,-0.30901579823703285,657,1366,768,2-15-2023,9-39-56,1,15,small,bathroom,scaled,scaled,floss.png,0,zi,kitchen,k3_zi.png,1,0,zi,laundromat,l1_zi.png,m,1,850,66545,126845,29,Man
422545,OSS,v7,2133,0.6963288901440732,1017,1920,1027,2-16-2023,5-8-37,2,0,small,classroom,scaled,misscaled,binderclip.png,1,zo,classroom,c1_zo.png,0,0,zi,laundromat,l3_zi.png,m,1,921,65337,182335,43,Man
