subjID,experimentName,versionName,windowWidth,Z-Scored RT,windowHeight,screenWidth,screenHeight,startDate,startTime,pracTries,trialNum,objectSize,objectCategory,misscaled,object,objectScene1SemanticCongruency,scene1ZoomName,scene1Category,scene1,keyPress,accuracy,RT,ratingTrialNum,rating,ratingObject,ratingScene,experimentTime,totalTime,age,gender
799752,OSSe4,v1,1366,0.30923676858974775,625,1366,768,5-23-2023,10-18-22,1,0,small,kitchen,scaled,spoon.png,0,zi,bathroom,b1_zi.png,c,0,939,0,3,spoon.png,b1_zi.png,123750,165426,49,Man
799752,OSSe4,v1,1366,-0.003082094039100476,625,1366,768,5-23-2023,10-18-22,1,1,large,laundromat,misscaled,shirt.png,1,zi,laundromat,l2_zi.png,c,1,901,1,1,shirt.png,l2_zi.png,123750,165426,49,Man
799752,OSSe4,v1,1366,-0.11814693816551824,625,1366,768,5-23-2023,10-18-22,1,2,large,classroom,scaled,notebook.png,0,zo,bathroom,b5_zo.png,m,1,887,2,2,notebook.png,b5_zo.png,123750,165426,49,Man
799752,OSSe4,v1,1366,-1.4660493979321263,625,1366,768,5-23-2023,10-18-22,1,3,large,laundromat,misscaled,detergent.png,1,zi,laundromat,l1_zi.png,c,1,723,3,2,detergent.png,l1_zi.png,123750,165426,49,Man
799752,OSSe4,v1,1366,-0.027738846351904285,625,1366,768,5-23-2023,10-18-22,1,4,large,laundromat,scaled,shorts.png,1,zo,laundromat,l3_zo.png,c,1,898,4,4,shorts.png,l3_zo.png,123750,165426,49,Man
799752,OSSe4,v1,1366,0.08732599777451348,625,1366,768,5-23-2023,10-18-22,1,5,small,classroom,scaled,eraser.png,1,zi,classroom,c3_zi.png,c,1,912,5,4,eraser.png,c3_zi.png,123750,165426,49,Man
799752,OSSe4,v1,1366,-1.7372736733729683,625,1366,768,5-23-2023,10-18-22,1,6,small,bathroom,misscaled,lipstick.png,1,zo,bathroom,b4_zo.png,c,1,690,6,2,lipstick.png,b4_zo.png,123750,165426,49,Man
799752,OSSe4,v1,1366,-0.9975711039888541,625,1366,768,5-23-2023,10-18-22,1,7,large,bathroom,scaled,hairdryer.png,0,zo,classroom,c5_zo.png,m,1,780,7,3,hairdryer.png,c5_zo.png,123750,165426,49,Man
799752,OSSe4,v1,1366,0.5886799614681909,625,1366,768,5-23-2023,10-18-22,1,8,small,kitchen,scaled,sponge.png,1,zi,kitchen,k1_zi.png,c,1,973,8,4,sponge.png,k1_zi.png,123750,165426,49,Man
799752,OSSe4,v1,1366,-0.04417668122710682,625,1366,768,5-23-2023,10-18-22,1,9,small,classroom,scaled,paperclip.png,0,zi,laundromat,l4_zi.png,m,1,896,9,1,paperclip.png,l4_zi.png,123750,165426,49,Man
799752,OSSe4,v1,1366,0.7694961450954189,625,1366,768,5-23-2023,10-18-22,1,10,small,classroom,misscaled,binderclip.png,0,zo,laundromat,l1_zo.png,m,1,995,10,1,binderclip.png,l1_zo.png,123750,165426,49,Man
799752,OSSe4,v1,1366,-0.06883343353991063,625,1366,768,5-23-2023,10-18-22,1,11,small,laundromat,misscaled,coins.png,1,zo,laundromat,l4_zo.png,c,1,893,11,1,coins.png,l4_zo.png,123750,165426,49,Man
799752,OSSe4,v1,1366,2.4379363849284763,625,1366,768,5-23-2023,10-18-22,1,12,large,bathroom,misscaled,loofah.png,0,zi,classroom,c0_zi.png,m,1,1198,12,3,loofah.png,c0_zi.png,123750,165426,49,Man
799752,OSSe4,v1,1366,0.6873069707194062,625,1366,768,5-23-2023,10-18-22,1,13,small,laundromat,misscaled,tidepod.png,0,zo,kitchen,k4_zo.png,m,1,985,13,3,tidepod.png,k4_zo.png,123750,165426,49,Man
799752,OSSe4,v1,1366,-1.0057900214264552,625,1366,768,5-23-2023,10-18-22,1,14,large,kitchen,scaled,toaster.png,1,zo,kitchen,k0_zo.png,c,1,779,14,4,toaster.png,k0_zo.png,123750,165426,49,Man
799752,OSSe4,v1,1366,0.5886799614681909,625,1366,768,5-23-2023,10-18-22,1,15,large,kitchen,misscaled,pot.png,0,zi,classroom,c4_zi.png,m,1,973,15,1,pot.png,c4_zi.png,123750,165426,49,Man
285760,OSSe4,v1,1920,2.1270421210749646,969,1920,1080,5-19-2023,7-19-25,1,0,small,laundromat,misscaled,coins.png,0,zo,kitchen,k0_zo.png,m,1,1382,0,1,coins.png,k0_zo.png,111566,181583,41,Man
285760,OSSe4,v1,1920,-0.5939101436629822,969,1920,1080,5-19-2023,7-19-25,1,1,large,laundromat,scaled,detergent.png,1,zo,laundromat,l4_zo.png,c,1,858,1,4,detergent.png,l4_zo.png,111566,181583,41,Man
285760,OSSe4,v1,1920,-0.5160202887563615,969,1920,1080,5-19-2023,7-19-25,1,2,small,classroom,misscaled,binderclip.png,1,zo,classroom,c3_zo.png,c,1,873,2,1,binderclip.png,c3_zo.png,111566,181583,41,Man
285760,OSSe4,v1,1920,0.5121257960110306,969,1920,1080,5-19-2023,7-19-25,1,3,large,laundromat,misscaled,shorts.png,0,zi,classroom,c0_zi.png,m,1,1071,3,2,shorts.png,c0_zi.png,111566,181583,41,Man
285760,OSSe4,v1,1920,-0.863928307339267,969,1920,1080,5-19-2023,7-19-25,1,4,small,kitchen,misscaled,saltshaker.png,1,zo,kitchen,k3_zo.png,c,1,806,4,2,saltshaker.png,k3_zo.png,111566,181583,41,Man
285760,OSSe4,v1,1920,-0.4848643467937133,969,1920,1080,5-19-2023,7-19-25,1,5,small,classroom,scaled,paperclip.png,1,zi,classroom,c3_zi.png,c,1,879,5,1,paperclip.png,c3_zi.png,111566,181583,41,Man
285760,OSSe4,v1,1920,-0.5575615447065593,969,1920,1080,5-19-2023,7-19-25,1,6,large,laundromat,misscaled,shirt.png,0,zi,classroom,c4_zi.png,c,0,865,6,1,shirt.png,c4_zi.png,111566,181583,41,Man
285760,OSSe4,v1,1920,0.26287826030984457,969,1920,1080,5-19-2023,7-19-25,1,7,large,classroom,scaled,clipboard.png,0,zo,bathroom,b4_zo.png,m,1,1023,7,4,clipboard.png,b4_zo.png,111566,181583,41,Man
285760,OSSe4,v1,1920,-0.38101120691821916,969,1920,1080,5-19-2023,7-19-25,1,8,small,laundromat,misscaled,socks.png,0,zo,classroom,c5_zo.png,m,1,899,8,3,socks.png,c5_zo.png,111566,181583,41,Man
285760,OSSe4,v1,1920,-0.9002769062956899,969,1920,1080,5-19-2023,7-19-25,1,9,small,laundromat,scaled,tidepod.png,1,zi,laundromat,l4_zi.png,c,1,799,9,2,tidepod.png,l4_zi.png,111566,181583,41,Man
285760,OSSe4,v1,1920,-0.7496898534762234,969,1920,1080,5-19-2023,7-19-25,1,10,small,bathroom,scaled,lipstick.png,0,zi,kitchen,k1_zi.png,m,1,828,10,3,lipstick.png,k1_zi.png,111566,181583,41,Man
285760,OSSe4,v1,1920,0.5069331390172558,969,1920,1080,5-19-2023,7-19-25,1,11,large,bathroom,scaled,loofah.png,0,zo,kitchen,k4_zo.png,m,1,1070,11,4,loofah.png,k4_zo.png,111566,181583,41,Man
285760,OSSe4,v1,1920,-0.6925706265447016,969,1920,1080,5-19-2023,7-19-25,1,12,large,kitchen,misscaled,pot.png,1,zi,kitchen,k5_zi.png,c,1,839,12,2,pot.png,k5_zi.png,111566,181583,41,Man
285760,OSSe4,v1,1920,0.4186579701230858,969,1920,1080,5-19-2023,7-19-25,1,13,large,bathroom,scaled,tissuebox.png,1,zo,bathroom,b5_zo.png,c,1,1053,13,4,tissuebox.png,b5_zo.png,111566,181583,41,Man
285760,OSSe4,v1,1920,-0.45370840483106506,969,1920,1080,5-19-2023,7-19-25,1,14,large,bathroom,misscaled,hairdryer.png,1,zi,bathroom,b1_zi.png,m,0,885,14,2,hairdryer.png,b1_zi.png,111566,181583,41,Man
285760,OSSe4,v1,1920,2.365904342788601,969,1920,1080,5-19-2023,7-19-25,1,15,small,bathroom,scaled,nailclipper.png,0,zi,kitchen,k2_zi.png,m,1,1428,15,4,nailclipper.png,k2_zi.png,111566,181583,41,Man
491626,OSSe4,v1,1366,0.6806132995170231,768,1366,768,5-19-2023,10-31-19,2,0,small,laundromat,misscaled,coins.png,0,zo,kitchen,k3_zo.png,m,1,1514,0,1,coins.png,k3_zo.png,189997,422655,49,Man
491626,OSSe4,v1,1366,0.17485479828861794,768,1366,768,5-19-2023,10-31-19,2,1,small,bathroom,scaled,floss.png,1,zi,bathroom,b1_zi.png,c,1,1356,1,1,floss.png,b1_zi.png,189997,422655,49,Man
491626,OSSe4,v1,1366,-1.3712297339475827,768,1366,768,5-19-2023,10-31-19,2,2,small,kitchen,misscaled,saltshaker.png,1,zo,kitchen,k0_zo.png,c,1,873,2,1,saltshaker.png,k0_zo.png,189997,422655,49,Man
491626,OSSe4,v1,1366,1.1575627721944433,768,1366,768,5-19-2023,10-31-19,2,3,small,classroom,scaled,eraser.png,1,zi,classroom,c0_zi.png,c,1,1663,3,4,eraser.png,c0_zi.png,189997,422655,49,Man
491626,OSSe4,v1,1366,-1.1727675372630186,768,1366,768,5-19-2023,10-31-19,2,4,small,kitchen,misscaled,spoon.png,1,zo,kitchen,k4_zo.png,c,1,935,4,2,spoon.png,k4_zo.png,189997,422655,49,Man
491626,OSSe4,v1,1366,-0.3277026997674556,768,1366,768,5-19-2023,10-31-19,2,5,large,bathroom,scaled,loofah.png,1,zo,bathroom,b5_zo.png,c,1,1199,5,1,loofah.png,b5_zo.png,189997,422655,49,Man
491626,OSSe4,v1,1366,-0.7918481597555489,768,1366,768,5-19-2023,10-31-19,2,6,large,kitchen,scaled,kettle.png,0,zo,classroom,c2_zo.png,m,1,1054,6,1,kettle.png,c2_zo.png,189997,422655,49,Man
491626,OSSe4,v1,1366,-0.6157929852773066,768,1366,768,5-19-2023,10-31-19,2,7,small,bathroom,misscaled,lipstick.png,0,zo,laundromat,l1_zo.png,m,1,1109,7,1,lipstick.png,l1_zo.png,189997,422655,49,Man
491626,OSSe4,v1,1366,-1.7681541273167107,768,1366,768,5-19-2023,10-31-19,2,8,large,laundromat,misscaled,detergent.png,1,zi,laundromat,l1_zi.png,m,0,749,8,4,detergent.png,l1_zi.png,189997,422655,49,Man
491626,OSSe4,v1,1366,-0.31169768390579716,768,1366,768,5-19-2023,10-31-19,2,9,large,kitchen,scaled,pot.png,0,zo,classroom,c3_zo.png,m,1,1204,9,3,pot.png,c3_zo.png,189997,422655,49,Man
491626,OSSe4,v1,1366,0.046814671395350796,768,1366,768,5-19-2023,10-31-19,2,10,small,bathroom,scaled,nailclipper.png,0,zi,laundromat,l2_zi.png,c,0,1316,10,1,nailclipper.png,l2_zi.png,189997,422655,49,Man
491626,OSSe4,v1,1366,1.756150365420467,768,1366,768,5-19-2023,10-31-19,2,11,small,kitchen,scaled,sponge.png,0,zi,laundromat,l4_zi.png,m,1,1850,11,4,sponge.png,l4_zi.png,189997,422655,49,Man
491626,OSSe4,v1,1366,0.01800564284436569,768,1366,768,5-19-2023,10-31-19,2,12,large,bathroom,misscaled,hairdryer.png,0,zi,kitchen,k1_zi.png,m,1,1307,12,4,hairdryer.png,k1_zi.png,189997,422655,49,Man
491626,OSSe4,v1,1366,0.39252301400717204,768,1366,768,5-19-2023,10-31-19,2,13,large,bathroom,misscaled,tissuebox.png,1,zi,bathroom,b2_zi.png,c,1,1424,13,2,tissuebox.png,b2_zi.png,189997,422655,49,Man
491626,OSSe4,v1,1366,0.8950805120632456,768,1366,768,5-19-2023,10-31-19,2,14,large,kitchen,misscaled,toaster.png,0,zi,classroom,c3_zi.png,m,1,1581,14,2,toaster.png,c3_zi.png,189997,422655,49,Man
491626,OSSe4,v1,1366,1.2375878515027352,768,1366,768,5-19-2023,10-31-19,2,15,large,classroom,scaled,computer.png,1,zo,classroom,c5_zo.png,c,1,1688,15,3,computer.png,c5_zo.png,189997,422655,49,Man
345728,OSSe4,v1,1602,0.5780576475113489,845,1920,1080,5-23-2023,13-20-23,2,0,large,classroom,scaled,computer.png,1,zo,classroom,c2_zo.png,c,1,1544,0,3,computer.png,c2_zo.png,1232987,1460152,39,Man
345728,OSSe4,v1,1602,1.6670376931234376,845,1920,1080,5-23-2023,13-20-23,2,1,small,classroom,scaled,binderclip.png,1,zi,classroom,c3_zi.png,c,1,1838,1,1,binderclip.png,c3_zi.png,1232987,1460152,39,Man
345728,OSSe4,v1,1602,-1.3924776731200497,845,1920,1080,5-23-2023,13-20-23,2,2,small,bathroom,misscaled,lipstick.png,0,zo,kitchen,k4_zo.png,m,1,1012,2,1,lipstick.png,k4_zo.png,1232987,1460152,39,Man
345728,OSSe4,v1,1602,-1.4332218244864883,845,1920,1080,5-23-2023,13-20-23,2,3,large,classroom,misscaled,clipboard.png,0,zi,kitchen,k2_zi.png,m,1,1001,3,2,clipboard.png,k2_zi.png,1232987,1460152,39,Man
345728,OSSe4,v1,1602,-1.2220930401331243,845,1920,1080,5-23-2023,13-20-23,2,4,small,laundromat,misscaled,tidepod.png,1,zo,laundromat,l4_zo.png,c,1,1058,4,1,tidepod.png,l4_zo.png,1232987,1460152,39,Man
345728,OSSe4,v1,1602,1.6670376931234376,845,1920,1080,5-23-2023,13-20-23,2,5,large,laundromat,scaled,shorts.png,0,zo,classroom,c3_zo.png,m,1,1838,5,4,shorts.png,c3_zo.png,1232987,1460152,39,Man
345728,OSSe4,v1,1602,-0.27756953118386357,845,1920,1080,5-23-2023,13-20-23,2,6,small,bathroom,scaled,floss.png,1,zi,bathroom,b1_zi.png,c,1,1313,6,2,floss.png,b1_zi.png,1232987,1460152,39,Man
345728,OSSe4,v1,1602,0.3965609732426675,845,1920,1080,5-23-2023,13-20-23,2,7,small,bathroom,misscaled,nailclipper.png,1,zo,bathroom,b5_zo.png,c,1,1495,7,1,nailclipper.png,b5_zo.png,1232987,1460152,39,Man
345728,OSSe4,v1,1602,0.3965609732426675,845,1920,1080,5-23-2023,13-20-23,2,8,large,bathroom,scaled,loofah.png,0,zo,classroom,c5_zo.png,m,1,1495,8,2,loofah.png,c5_zo.png,1232987,1460152,39,Man
345728,OSSe4,v1,1602,-0.5627785907489344,845,1920,1080,5-23-2023,13-20-23,2,9,large,bathroom,misscaled,hairdryer.png,1,zi,bathroom,b5_zi.png,c,1,1236,9,2,hairdryer.png,b5_zi.png,1232987,1460152,39,Man
345728,OSSe4,v1,1602,0.5039773722996422,845,1920,1080,5-23-2023,13-20-23,2,10,large,bathroom,misscaled,tissuebox.png,0,zi,laundromat,l1_zi.png,m,1,1524,10,4,tissuebox.png,l1_zi.png,1232987,1460152,39,Man
345728,OSSe4,v1,1602,-0.7813154026234692,845,1920,1080,5-23-2023,13-20-23,2,11,small,kitchen,scaled,sponge.png,0,zi,laundromat,l4_zi.png,m,1,1177,11,3,sponge.png,l4_zi.png,1232987,1460152,39,Man
345728,OSSe4,v1,1602,0.22617634025574204,845,1920,1080,5-23-2023,13-20-23,2,12,small,kitchen,misscaled,saltshaker.png,0,zo,laundromat,l3_zo.png,m,1,1449,12,2,saltshaker.png,l3_zo.png,1232987,1460152,39,Man
345728,OSSe4,v1,1602,1.1077316152750518,845,1920,1080,5-23-2023,13-20-23,2,13,large,kitchen,misscaled,toaster.png,1,zi,kitchen,k5_zi.png,c,1,1687,13,4,toaster.png,k5_zi.png,1232987,1460152,39,Man
345728,OSSe4,v1,1602,0.003935514620621919,845,1920,1080,5-23-2023,13-20-23,2,14,small,classroom,scaled,eraser.png,0,zi,bathroom,b2_zi.png,m,1,1389,14,3,eraser.png,b2_zi.png,1232987,1460152,39,Man
345728,OSSe4,v1,1602,-0.8776197603986879,845,1920,1080,5-23-2023,13-20-23,2,15,large,laundromat,scaled,detergent.png,1,zo,laundromat,l1_zo.png,c,1,1151,15,2,detergent.png,l1_zo.png,1232987,1460152,39,Man
263107,OSSe4,v1,1366,1.747820501135638,625,1366,768,5-23-2023,13-10-24,2,0,small,bathroom,misscaled,floss.png,1,zo,bathroom,b4_zo.png,c,1,1506,0,2,floss.png,b4_zo.png,150206,333435,49,Man
263107,OSSe4,v1,1366,0.8765107186685809,625,1366,768,5-23-2023,13-10-24,2,1,small,bathroom,misscaled,nailclipper.png,1,zo,bathroom,b1_zo.png,c,1,1328,1,2,nailclipper.png,b1_zo.png,150206,333435,49,Man
263107,OSSe4,v1,1366,1.933830454696021,625,1366,768,5-23-2023,13-10-24,2,2,small,bathroom,scaled,lipstick.png,1,zi,bathroom,b5_zi.png,c,1,1544,2,3,lipstick.png,b5_zi.png,150206,333435,49,Man
263107,OSSe4,v1,1366,0.08841591542590571,625,1366,768,5-23-2023,13-10-24,2,3,large,classroom,misscaled,clipboard.png,0,zi,kitchen,k2_zi.png,m,1,1167,3,2,clipboard.png,k2_zi.png,150206,333435,49,Man
263107,OSSe4,v1,1366,-1.0276438059363922,625,1366,768,5-23-2023,13-10-24,2,4,small,kitchen,misscaled,spoon.png,0,zo,classroom,c5_zo.png,m,1,939,4,2,spoon.png,c5_zo.png,150206,333435,49,Man
263107,OSSe4,v1,1366,-0.738838878040008,625,1366,768,5-23-2023,13-10-24,2,5,large,bathroom,misscaled,loofah.png,1,zi,bathroom,b1_zi.png,c,1,998,5,3,loofah.png,b1_zi.png,150206,333435,49,Man
263107,OSSe4,v1,1366,-0.30318398680647946,625,1366,768,5-23-2023,13-10-24,2,6,large,classroom,misscaled,notebook.png,0,zi,laundromat,l1_zi.png,m,1,1087,6,4,notebook.png,l1_zi.png,150206,333435,49,Man
263107,OSSe4,v1,1366,-0.1857040161367639,625,1366,768,5-23-2023,13-10-24,2,7,large,laundromat,misscaled,detergent.png,1,zi,laundromat,l4_zi.png,c,1,1111,7,3,detergent.png,l4_zi.png,150206,333435,49,Man
263107,OSSe4,v1,1366,-0.5430389269238154,625,1366,768,5-23-2023,13-10-24,2,8,large,laundromat,scaled,shorts.png,0,zo,classroom,c2_zo.png,m,1,1038,8,2,shorts.png,c2_zo.png,150206,333435,49,Man
263107,OSSe4,v1,1366,-0.09269903935657244,625,1366,768,5-23-2023,13-10-24,2,9,small,laundromat,scaled,coins.png,0,zi,kitchen,k5_zi.png,m,1,1130,9,1,coins.png,k5_zi.png,150206,333435,49,Man
263107,OSSe4,v1,1366,0.44085582743505236,625,1366,768,5-23-2023,13-10-24,2,10,large,laundromat,scaled,shirt.png,0,zo,bathroom,b5_zo.png,m,1,1239,10,4,shirt.png,b5_zo.png,150206,333435,49,Man
263107,OSSe4,v1,1366,-0.02906405524380984,625,1366,768,5-23-2023,13-10-24,2,11,large,kitchen,scaled,toaster.png,1,zo,kitchen,k0_zo.png,c,1,1143,11,2,toaster.png,k0_zo.png,150206,333435,49,Man
263107,OSSe4,v1,1366,1.1555256490091554,625,1366,768,5-23-2023,13-10-24,2,12,small,classroom,scaled,binderclip.png,1,zi,classroom,c0_zi.png,c,1,1385,12,4,binderclip.png,c0_zi.png,150206,333435,49,Man
263107,OSSe4,v1,1366,-0.7584188731516273,625,1366,768,5-23-2023,13-10-24,2,13,large,kitchen,scaled,kettle.png,1,zo,kitchen,k3_zo.png,c,1,994,13,1,kettle.png,k3_zo.png,150206,333435,49,Man
263107,OSSe4,v1,1366,-1.3262387313885857,625,1366,768,5-23-2023,13-10-24,2,14,small,classroom,scaled,paperclip.png,0,zi,bathroom,b2_zi.png,m,1,878,14,1,paperclip.png,b2_zi.png,150206,333435,49,Man
263107,OSSe4,v1,1366,-1.238128753386299,625,1366,768,5-23-2023,13-10-24,2,15,small,kitchen,misscaled,saltshaker.png,0,zo,laundromat,l3_zo.png,m,1,896,15,1,saltshaker.png,l3_zo.png,150206,333435,49,Man
387988,OSSe4,v1,1440,0.31208297696156995,790,1440,900,5-19-2023,8-16-59,1,0,large,bathroom,scaled,loofah.png,0,zo,classroom,c5_zo.png,m,1,878,0,1,loofah.png,c5_zo.png,159260,269607,35,Man
387988,OSSe4,v1,1440,0.32002149465852564,790,1440,900,5-19-2023,8-16-59,1,1,small,laundromat,misscaled,coins.png,1,zo,laundromat,l3_zo.png,c,1,879,1,1,coins.png,l3_zo.png,159260,269607,35,Man
387988,OSSe4,v1,1440,-0.7199243236426678,790,1440,900,5-19-2023,8-16-59,1,2,large,laundromat,scaled,shirt.png,1,zo,laundromat,l1_zo.png,c,1,748,2,2,shirt.png,l1_zo.png,159260,269607,35,Man
387988,OSSe4,v1,1440,-0.3388754741887954,790,1440,900,5-19-2023,8-16-59,1,3,large,kitchen,misscaled,kettle.png,1,zi,kitchen,k1_zi.png,c,1,796,3,2,kettle.png,k1_zi.png,159260,269607,35,Man
387988,OSSe4,v1,1440,0.5581770255671958,790,1440,900,5-19-2023,8-16-59,1,4,large,laundromat,scaled,detergent.png,0,zo,bathroom,b5_zo.png,m,1,909,4,4,detergent.png,b5_zo.png,159260,269607,35,Man
387988,OSSe4,v1,1440,0.6534392379306639,790,1440,900,5-19-2023,8-16-59,1,5,small,laundromat,scaled,socks.png,0,zi,bathroom,b2_zi.png,c,0,921,5,1,socks.png,b2_zi.png,159260,269607,35,Man
387988,OSSe4,v1,1440,2.479298308230469,790,1440,900,5-19-2023,8-16-59,1,6,large,kitchen,misscaled,pot.png,0,zi,bathroom,b1_zi.png,m,1,1151,6,1,pot.png,b1_zi.png,159260,269607,35,Man
387988,OSSe4,v1,1440,0.9074718042332456,790,1440,900,5-19-2023,8-16-59,1,7,large,laundromat,scaled,shorts.png,1,zo,laundromat,l4_zo.png,c,1,953,7,3,shorts.png,l4_zo.png,159260,269607,35,Man
387988,OSSe4,v1,1440,1.1138732643540932,790,1440,900,5-19-2023,8-16-59,1,8,small,classroom,misscaled,binderclip.png,1,zo,classroom,c2_zo.png,c,1,979,8,1,binderclip.png,c2_zo.png,159260,269607,35,Man
387988,OSSe4,v1,1440,-1.0454035492178504,790,1440,900,5-19-2023,8-16-59,1,9,small,kitchen,misscaled,sponge.png,0,zo,classroom,c3_zo.png,m,1,707,9,1,sponge.png,c3_zo.png,159260,269607,35,Man
387988,OSSe4,v1,1440,-0.40238361576444076,790,1440,900,5-19-2023,8-16-59,1,10,large,kitchen,misscaled,toaster.png,1,zi,kitchen,k5_zi.png,c,1,788,10,3,toaster.png,k5_zi.png,159260,269607,35,Man
387988,OSSe4,v1,1440,-0.2674288149161943,790,1440,900,5-19-2023,8-16-59,1,11,small,laundromat,scaled,tidepod.png,1,zi,laundromat,l1_zi.png,c,1,805,11,1,tidepod.png,l1_zi.png,159260,269607,35,Man
387988,OSSe4,v1,1440,-0.9818954076422051,790,1440,900,5-19-2023,8-16-59,1,12,small,kitchen,scaled,saltshaker.png,0,zi,bathroom,b5_zi.png,m,1,715,12,3,saltshaker.png,b5_zi.png,159260,269607,35,Man
387988,OSSe4,v1,1440,-1.4740835048534568,790,1440,900,5-19-2023,8-16-59,1,13,large,bathroom,misscaled,hairdryer.png,0,zi,classroom,c4_zi.png,m,1,653,13,1,hairdryer.png,c4_zi.png,159260,269607,35,Man
387988,OSSe4,v1,1440,-0.29918288570401697,790,1440,900,5-19-2023,8-16-59,1,14,small,classroom,misscaled,paperclip.png,0,zo,bathroom,b4_zo.png,m,1,801,14,1,paperclip.png,b4_zo.png,159260,269607,35,Man
387988,OSSe4,v1,1440,-0.8151865360061359,790,1440,900,5-19-2023,8-16-59,1,15,small,classroom,scaled,eraser.png,1,zi,classroom,c0_zi.png,m,0,736,15,4,eraser.png,c0_zi.png,159260,269607,35,Man
951888,OSSe4,v1,1920,-1.374558336792947,909,1920,1080,5-23-2023,12-8-10,3,0,large,laundromat,misscaled,detergent.png,1,zi,laundromat,l1_zi.png,c,1,931,0,1,detergent.png,l1_zi.png,132678,294277,65,Woman
951888,OSSe4,v1,1920,-1.5392563750572361,909,1920,1080,5-23-2023,12-8-10,3,1,large,kitchen,misscaled,pot.png,1,zi,kitchen,k2_zi.png,c,1,888,1,1,pot.png,k2_zi.png,132678,294277,65,Woman
951888,OSSe4,v1,1920,-0.2484833774975756,909,1920,1080,5-23-2023,12-8-10,3,2,large,laundromat,scaled,shorts.png,1,zo,laundromat,l3_zo.png,m,0,1225,2,4,shorts.png,l3_zo.png,132678,294277,65,Woman
951888,OSSe4,v1,1920,2.4901002820132767,909,1920,1080,5-23-2023,12-8-10,3,3,large,laundromat,scaled,shirt.png,1,zo,laundromat,l4_zo.png,c,1,1940,3,4,shirt.png,l4_zo.png,132678,294277,65,Woman
951888,OSSe4,v1,1920,-0.6468228188809724,909,1920,1080,5-23-2023,12-8-10,3,4,small,laundromat,scaled,tidepod.png,1,zi,laundromat,l2_zi.png,c,1,1121,4,4,tidepod.png,l2_zi.png,132678,294277,65,Woman
951888,OSSe4,v1,1920,-0.8459925395726707,909,1920,1080,5-23-2023,12-8-10,3,5,small,laundromat,scaled,socks.png,1,zi,laundromat,l4_zi.png,c,1,1069,5,4,socks.png,l4_zi.png,132678,294277,65,Woman
951888,OSSe4,v1,1920,0.3758370931321712,909,1920,1080,5-23-2023,12-8-10,3,6,large,classroom,misscaled,clipboard.png,0,zi,kitchen,k5_zi.png,m,1,1388,6,4,clipboard.png,k5_zi.png,132678,294277,65,Woman
951888,OSSe4,v1,1920,-0.07229477842415012,909,1920,1080,5-23-2023,12-8-10,3,7,large,bathroom,scaled,loofah.png,0,zo,classroom,c3_zo.png,m,1,1271,7,4,loofah.png,c3_zo.png,132678,294277,65,Woman
951888,OSSe4,v1,1920,-0.6085209495171842,909,1920,1080,5-23-2023,12-8-10,3,8,small,bathroom,misscaled,lipstick.png,1,zo,bathroom,b5_zo.png,c,1,1131,8,1,lipstick.png,b5_zo.png,132678,294277,65,Woman
951888,OSSe4,v1,1920,-0.17954001264275693,909,1920,1080,5-23-2023,12-8-10,3,9,small,laundromat,scaled,coins.png,0,zi,classroom,c0_zi.png,c,0,1243,9,4,coins.png,c0_zi.png,132678,294277,65,Woman
951888,OSSe4,v1,1920,1.0269688723165697,909,1920,1080,5-23-2023,12-8-10,3,10,large,classroom,scaled,computer.png,0,zo,laundromat,l1_zo.png,m,1,1558,10,4,computer.png,l1_zo.png,132678,294277,65,Woman
951888,OSSe4,v1,1920,0.07325232515824483,909,1920,1080,5-23-2023,12-8-10,3,11,small,kitchen,scaled,saltshaker.png,0,zi,classroom,c3_zi.png,c,0,1309,11,4,saltshaker.png,c3_zi.png,132678,294277,65,Woman
951888,OSSe4,v1,1920,0.6094784962512789,909,1920,1080,5-23-2023,12-8-10,3,12,small,classroom,misscaled,eraser.png,0,zo,kitchen,k3_zo.png,c,0,1449,12,4,eraser.png,k3_zo.png,132678,294277,65,Woman
951888,OSSe4,v1,1920,1.1150631718532824,909,1920,1080,5-23-2023,12-8-10,3,13,small,classroom,misscaled,binderclip.png,1,zo,classroom,c5_zo.png,c,1,1581,13,4,binderclip.png,c5_zo.png,132678,294277,65,Woman
951888,OSSe4,v1,1920,-0.31742674235239426,909,1920,1080,5-23-2023,12-8-10,3,14,small,kitchen,misscaled,spoon.png,0,zo,classroom,c2_zo.png,m,1,1207,14,4,spoon.png,c2_zo.png,132678,294277,65,Woman
951888,OSSe4,v1,1920,0.1421956900130635,909,1920,1080,5-23-2023,12-8-10,3,15,large,kitchen,misscaled,kettle.png,0,zi,bathroom,b1_zi.png,m,1,1327,15,1,kettle.png,b1_zi.png,132678,294277,65,Woman
946115,OSSe4,v1,1536,0.7694530355551382,864,1920,1080,5-23-2023,14-30-37,1,0,large,laundromat,misscaled,shorts.png,0,zi,kitchen,k5_zi.png,m,1,1207,0,1,shorts.png,k5_zi.png,163503,293455,39,Man
946115,OSSe4,v1,1536,-0.4634849654522114,864,1920,1080,5-23-2023,14-30-37,1,1,large,kitchen,misscaled,kettle.png,0,zi,bathroom,b5_zi.png,m,1,1003,1,1,kettle.png,b5_zi.png,163503,293455,39,Man
946115,OSSe4,v1,1536,-0.5360107302173496,864,1920,1080,5-23-2023,14-30-37,1,2,small,kitchen,misscaled,saltshaker.png,1,zo,kitchen,k3_zo.png,c,1,991,2,1,saltshaker.png,k3_zo.png,163503,293455,39,Man
946115,OSSe4,v1,1536,-0.7354565833214797,864,1920,1080,5-23-2023,14-30-37,1,3,large,classroom,scaled,clipboard.png,0,zo,bathroom,b5_zo.png,m,1,958,3,3,clipboard.png,b5_zo.png,163503,293455,39,Man
946115,OSSe4,v1,1536,-0.5722736125999187,864,1920,1080,5-23-2023,14-30-37,1,4,small,laundromat,scaled,tidepod.png,0,zi,bathroom,b2_zi.png,c,0,985,4,2,tidepod.png,b2_zi.png,163503,293455,39,Man
946115,OSSe4,v1,1536,1.0353808396939783,864,1920,1080,5-23-2023,14-30-37,1,5,small,bathroom,scaled,floss.png,1,zi,bathroom,b1_zi.png,c,1,1251,5,3,floss.png,b1_zi.png,163503,293455,39,Man
946115,OSSe4,v1,1536,1.4040534772500977,864,1920,1080,5-23-2023,14-30-37,1,6,large,laundromat,scaled,shirt.png,1,zo,laundromat,l3_zo.png,c,1,1312,6,4,shirt.png,l3_zo.png,163503,293455,39,Man
946115,OSSe4,v1,1536,1.4765792420152357,864,1920,1080,5-23-2023,14-30-37,1,7,large,classroom,misscaled,computer.png,1,zi,classroom,c3_zi.png,c,1,1324,7,1,computer.png,c3_zi.png,163503,293455,39,Man
946115,OSSe4,v1,1536,-0.43930971053049866,864,1920,1080,5-23-2023,14-30-37,1,8,small,bathroom,scaled,nailclipper.png,0,zi,laundromat,l1_zi.png,m,1,1007,8,2,nailclipper.png,l1_zi.png,163503,293455,39,Man
946115,OSSe4,v1,1536,-0.3123896221915068,864,1920,1080,5-23-2023,14-30-37,1,9,small,laundromat,misscaled,socks.png,0,zo,classroom,c5_zo.png,m,1,1028,9,1,socks.png,c5_zo.png,163503,293455,39,Man
946115,OSSe4,v1,1536,-0.7535880245127643,864,1920,1080,5-23-2023,14-30-37,1,10,large,classroom,scaled,notebook.png,0,zo,laundromat,l4_zo.png,m,1,955,10,1,notebook.png,l4_zo.png,163503,293455,39,Man
946115,OSSe4,v1,1536,-0.9409462501560379,864,1920,1080,5-23-2023,14-30-37,1,11,small,kitchen,misscaled,spoon.png,1,zo,kitchen,k0_zo.png,c,1,924,11,1,spoon.png,k0_zo.png,163503,293455,39,Man
946115,OSSe4,v1,1536,-1.0195158286516044,864,1920,1080,5-23-2023,14-30-37,1,12,large,kitchen,misscaled,pot.png,1,zi,kitchen,k1_zi.png,c,1,911,12,1,pot.png,k1_zi.png,163503,293455,39,Man
946115,OSSe4,v1,1536,2.0870044287884824,864,1920,1080,5-23-2023,14-30-37,1,13,small,kitchen,misscaled,sponge.png,0,zo,laundromat,l1_zo.png,c,0,1425,13,1,sponge.png,l1_zo.png,163503,293455,39,Man
946115,OSSe4,v1,1536,-0.20360097504379945,864,1920,1080,5-23-2023,14-30-37,1,14,small,classroom,scaled,eraser.png,1,zi,classroom,c0_zi.png,c,1,1046,14,4,eraser.png,c0_zi.png,163503,293455,39,Man
946115,OSSe4,v1,1536,-0.7958947206257615,864,1920,1080,5-23-2023,14-30-37,1,15,large,kitchen,scaled,toaster.png,1,zo,kitchen,k4_zo.png,c,1,948,15,2,toaster.png,k4_zo.png,163503,293455,39,Man
756967,OSSe4,v1,1920,-0.20256472676499362,969,1920,1080,5-23-2023,13-49-12,1,0,large,classroom,misscaled,computer.png,0,zi,kitchen,k1_zi.png,c,0,925,0,2,computer.png,k1_zi.png,114596,215921,32,Woman
756967,OSSe4,v1,1920,0.07298890964406653,969,1920,1080,5-23-2023,13-49-12,1,1,small,kitchen,scaled,sponge.png,1,zi,kitchen,k5_zi.png,c,1,967,1,4,sponge.png,k5_zi.png,114596,215921,32,Woman
756967,OSSe4,v1,1920,1.5098042994913088,969,1920,1080,5-23-2023,13-49-12,1,2,large,laundromat,scaled,shorts.png,0,zo,bathroom,b5_zo.png,m,1,1186,2,4,shorts.png,b5_zo.png,114596,215921,32,Woman
756967,OSSe4,v1,1920,1.9493779575724284,969,1920,1080,5-23-2023,13-49-12,1,3,small,laundromat,misscaled,coins.png,0,zo,classroom,c3_zo.png,m,1,1253,3,1,coins.png,c3_zo.png,114596,215921,32,Woman
756967,OSSe4,v1,1920,0.8537242128030703,969,1920,1080,5-23-2023,13-49-12,1,4,small,classroom,scaled,paperclip.png,0,zi,laundromat,l2_zi.png,m,1,1086,4,2,paperclip.png,l2_zi.png,114596,215921,32,Woman
756967,OSSe4,v1,1920,-0.27473353630069985,969,1920,1080,5-23-2023,13-49-12,1,5,small,classroom,scaled,eraser.png,0,zi,laundromat,l4_zi.png,m,1,914,5,2,eraser.png,l4_zi.png,114596,215921,32,Woman
756967,OSSe4,v1,1920,1.516365100358191,969,1920,1080,5-23-2023,13-49-12,1,6,small,bathroom,scaled,floss.png,1,zi,bathroom,b1_zi.png,c,1,1187,6,3,floss.png,b1_zi.png,114596,215921,32,Woman
756967,OSSe4,v1,1920,-0.06478790856046354,969,1920,1080,5-23-2023,13-49-12,1,7,large,classroom,misscaled,clipboard.png,1,zi,classroom,c3_zi.png,c,1,946,7,2,clipboard.png,c3_zi.png,114596,215921,32,Woman
756967,OSSe4,v1,1920,-0.6946247917811724,969,1920,1080,5-23-2023,13-49-12,1,8,large,kitchen,scaled,pot.png,1,zo,kitchen,k3_zo.png,c,1,850,8,3,pot.png,k3_zo.png,114596,215921,32,Woman
756967,OSSe4,v1,1920,-0.4912399649078185,969,1920,1080,5-23-2023,13-49-12,1,9,small,bathroom,misscaled,nailclipper.png,1,zo,bathroom,b1_zo.png,c,1,881,9,1,nailclipper.png,b1_zo.png,114596,215921,32,Woman
756967,OSSe4,v1,1920,-0.10415271376175786,969,1920,1080,5-23-2023,13-49-12,1,10,large,classroom,scaled,notebook.png,0,zo,laundromat,l4_zo.png,m,1,940,10,1,notebook.png,l4_zo.png,114596,215921,32,Woman
756967,OSSe4,v1,1920,-1.2982184715343519,969,1920,1080,5-23-2023,13-49-12,1,11,large,kitchen,misscaled,kettle.png,1,zi,kitchen,k2_zi.png,c,1,758,11,1,kettle.png,k2_zi.png,114596,215921,32,Woman
756967,OSSe4,v1,1920,-0.41251035450522994,969,1920,1080,5-23-2023,13-49-12,1,12,large,laundromat,misscaled,detergent.png,0,zi,classroom,c4_zi.png,m,1,893,12,2,detergent.png,c4_zi.png,114596,215921,32,Woman
756967,OSSe4,v1,1920,0.15171852004665515,969,1920,1080,5-23-2023,13-49-12,1,13,small,classroom,misscaled,binderclip.png,0,zo,laundromat,l3_zo.png,m,1,979,13,1,binderclip.png,l3_zo.png,114596,215921,32,Woman
756967,OSSe4,v1,1920,-1.2588536663330576,969,1920,1080,5-23-2023,13-49-12,1,14,small,bathroom,misscaled,lipstick.png,1,zo,bathroom,b4_zo.png,c,1,764,14,2,lipstick.png,b4_zo.png,114596,215921,32,Woman
756967,OSSe4,v1,1920,-1.2522928654661751,969,1920,1080,5-23-2023,13-49-12,1,15,large,laundromat,scaled,shirt.png,1,zo,laundromat,l1_zo.png,c,1,765,15,2,shirt.png,l1_zo.png,114596,215921,32,Woman
465521,OSSe4,v1,1920,2.568979830012372,937,1920,1080,5-19-2023,10-21-31,1,0,large,bathroom,misscaled,loofah.png,0,zi,kitchen,k2_zi.png,m,1,1338,0,4,loofah.png,k2_zi.png,122549,218164,42,Man
465521,OSSe4,v1,1920,0.4177593368431334,937,1920,1080,5-19-2023,10-21-31,1,1,small,kitchen,misscaled,sponge.png,0,zo,classroom,c3_zo.png,m,1,974,1,2,sponge.png,c3_zo.png,122549,218164,42,Man
465521,OSSe4,v1,1920,0.33502008710585496,937,1920,1080,5-19-2023,10-21-31,1,2,small,classroom,misscaled,binderclip.png,1,zo,classroom,c2_zo.png,c,1,960,2,3,binderclip.png,c2_zo.png,122549,218164,42,Man
465521,OSSe4,v1,1920,0.18727142686071496,937,1920,1080,5-19-2023,10-21-31,1,3,small,kitchen,scaled,spoon.png,1,zi,kitchen,k1_zi.png,c,1,935,3,4,spoon.png,k1_zi.png,122549,218164,42,Man
465521,OSSe4,v1,1920,-0.776049837937598,937,1920,1080,5-19-2023,10-21-31,1,4,large,kitchen,misscaled,toaster.png,1,zi,kitchen,k5_zi.png,c,1,772,4,1,toaster.png,k5_zi.png,122549,218164,42,Man
465521,OSSe4,v1,1920,-0.7287702666591531,937,1920,1080,5-19-2023,10-21-31,1,5,large,kitchen,scaled,pot.png,0,zo,bathroom,b5_zo.png,m,1,780,5,2,pot.png,b5_zo.png,122549,218164,42,Man
465521,OSSe4,v1,1920,-0.7405901594787643,937,1920,1080,5-19-2023,10-21-31,1,6,large,bathroom,scaled,hairdryer.png,1,zo,bathroom,b1_zo.png,c,1,778,6,3,hairdryer.png,b1_zo.png,122549,218164,42,Man
465521,OSSe4,v1,1920,-0.3978132677100395,937,1920,1080,5-19-2023,10-21-31,1,7,large,classroom,misscaled,notebook.png,0,zi,laundromat,l2_zi.png,m,1,836,7,2,notebook.png,l2_zi.png,122549,218164,42,Man
465521,OSSe4,v1,1920,-0.6283011776924579,937,1920,1080,5-19-2023,10-21-31,1,8,small,kitchen,misscaled,saltshaker.png,1,zo,kitchen,k3_zo.png,c,1,797,8,1,saltshaker.png,k3_zo.png,122549,218164,42,Man
465521,OSSe4,v1,1920,-0.25006460746489945,937,1920,1080,5-19-2023,10-21-31,1,9,small,classroom,scaled,eraser.png,0,zi,bathroom,b1_zi.png,c,0,861,9,4,eraser.png,b1_zi.png,122549,218164,42,Man
465521,OSSe4,v1,1920,0.7841760142510806,937,1920,1080,5-19-2023,10-21-31,1,10,large,laundromat,misscaled,shirt.png,1,zi,laundromat,l4_zi.png,c,1,1036,10,1,shirt.png,l4_zi.png,122549,218164,42,Man
465521,OSSe4,v1,1920,-1.0656372120180724,937,1920,1080,5-19-2023,10-21-31,1,11,large,classroom,scaled,clipboard.png,1,zo,classroom,c5_zo.png,c,1,723,11,3,clipboard.png,c5_zo.png,122549,218164,42,Man
465521,OSSe4,v1,1920,1.7888669039180327,937,1920,1080,5-19-2023,10-21-31,1,12,small,laundromat,scaled,coins.png,0,zi,classroom,c3_zi.png,m,1,1206,12,1,coins.png,c3_zi.png,122549,218164,42,Man
465521,OSSe4,v1,1920,-0.4569127318080955,937,1920,1080,5-19-2023,10-21-31,1,13,small,laundromat,misscaled,tidepod.png,0,zo,kitchen,k0_zo.png,c,0,826,13,1,tidepod.png,k0_zo.png,122549,218164,42,Man
465521,OSSe4,v1,1920,-0.3150740179727611,937,1920,1080,5-19-2023,10-21-31,1,14,large,classroom,scaled,computer.png,0,zo,laundromat,l3_zo.png,m,1,850,14,2,computer.png,l3_zo.png,122549,218164,42,Man
465521,OSSe4,v1,1920,-0.7228603202493475,937,1920,1080,5-19-2023,10-21-31,1,15,small,classroom,scaled,paperclip.png,1,zi,classroom,c4_zi.png,c,1,781,15,1,paperclip.png,c4_zi.png,122549,218164,42,Man
976379,OSSe4,v1,1920,1.0757266886489496,968,1920,1080,5-23-2023,13-12-54,2,0,small,laundromat,misscaled,socks.png,0,zo,bathroom,b5_zo.png,c,0,1162,0,2,socks.png,b5_zo.png,234401,488262,35,Man
976379,OSSe4,v1,1920,1.2428298635847086,968,1920,1080,5-23-2023,13-12-54,2,1,small,bathroom,scaled,floss.png,1,zi,bathroom,b5_zi.png,c,1,1182,1,4,floss.png,b5_zi.png,234401,488262,35,Man
976379,OSSe4,v1,1920,2.4125520881350226,968,1920,1080,5-23-2023,13-12-54,2,2,large,laundromat,misscaled,detergent.png,0,zi,bathroom,b2_zi.png,c,0,1322,2,2,detergent.png,b2_zi.png,234401,488262,35,Man
976379,OSSe4,v1,1920,-0.09399553590136452,968,1920,1080,5-23-2023,13-12-54,2,3,large,laundromat,misscaled,shirt.png,0,zi,bathroom,b1_zi.png,c,0,1022,3,1,shirt.png,b1_zi.png,234401,488262,35,Man
976379,OSSe4,v1,1920,-0.22767807584997185,968,1920,1080,5-23-2023,13-12-54,2,4,small,classroom,misscaled,paperclip.png,0,zo,laundromat,l3_zo.png,m,1,1006,4,1,paperclip.png,l3_zo.png,234401,488262,35,Man
976379,OSSe4,v1,1920,-0.0020887896866969894,968,1920,1080,5-23-2023,13-12-54,2,5,large,classroom,scaled,clipboard.png,0,zo,bathroom,b4_zo.png,m,1,1033,5,3,clipboard.png,b4_zo.png,234401,488262,35,Man
976379,OSSe4,v1,1920,0.6830342275499155,968,1920,1080,5-23-2023,13-12-54,2,6,large,classroom,misscaled,computer.png,1,zi,classroom,c3_zi.png,c,1,1115,6,2,computer.png,c3_zi.png,234401,488262,35,Man
976379,OSSe4,v1,1920,-0.3530054570517912,968,1920,1080,5-23-2023,13-12-54,2,7,large,classroom,misscaled,notebook.png,1,zi,classroom,c0_zi.png,c,1,991,7,2,notebook.png,c0_zi.png,234401,488262,35,Man
976379,OSSe4,v1,1920,-0.8292495056187048,968,1920,1080,5-23-2023,13-12-54,2,8,small,classroom,misscaled,eraser.png,1,zo,classroom,c2_zo.png,c,1,934,8,1,eraser.png,c2_zo.png,234401,488262,35,Man
976379,OSSe4,v1,1920,0.7498754975242192,968,1920,1080,5-23-2023,13-12-54,2,9,small,bathroom,scaled,nailclipper.png,0,zi,kitchen,k5_zi.png,m,1,1123,9,3,nailclipper.png,k5_zi.png,234401,488262,35,Man
976379,OSSe4,v1,1920,-0.06893005966100064,968,1920,1080,5-23-2023,13-12-54,2,10,large,bathroom,scaled,hairdryer.png,1,zo,bathroom,b1_zo.png,c,1,1025,10,4,hairdryer.png,b1_zo.png,234401,488262,35,Man
976379,OSSe4,v1,1920,-0.595305060708642,968,1920,1080,5-23-2023,13-12-54,2,11,small,kitchen,misscaled,saltshaker.png,1,zo,kitchen,k3_zo.png,c,1,962,11,2,saltshaker.png,k3_zo.png,234401,488262,35,Man
976379,OSSe4,v1,1920,-0.8960907755930084,968,1920,1080,5-23-2023,13-12-54,2,12,small,kitchen,scaled,sponge.png,0,zi,classroom,c4_zi.png,m,1,926,12,4,sponge.png,c4_zi.png,234401,488262,35,Man
976379,OSSe4,v1,1920,-0.7289876006572493,968,1920,1080,5-23-2023,13-12-54,2,13,large,kitchen,scaled,pot.png,0,zo,classroom,c5_zo.png,m,1,946,13,4,pot.png,c5_zo.png,234401,488262,35,Man
976379,OSSe4,v1,1920,-0.987997521807676,968,1920,1080,5-23-2023,13-12-54,2,14,small,kitchen,scaled,spoon.png,1,zi,kitchen,k2_zi.png,c,1,915,14,4,spoon.png,k2_zi.png,234401,488262,35,Man
976379,OSSe4,v1,1920,-1.3806899829067099,968,1920,1080,5-23-2023,13-12-54,2,15,large,kitchen,scaled,kettle.png,1,zo,kitchen,k4_zo.png,c,1,868,15,3,kettle.png,k4_zo.png,234401,488262,35,Man
938867,OSSe4,v1,1920,1.7856859253678043,937,1920,1080,5-23-2023,11-9-34,1,0,large,bathroom,scaled,tissuebox.png,1,zo,bathroom,b1_zo.png,c,1,1662,0,4,tissuebox.png,b1_zo.png,148444,234420,42,Man
938867,OSSe4,v1,1920,-0.9087892482801595,937,1920,1080,5-23-2023,11-9-34,1,1,large,laundromat,scaled,shorts.png,0,zo,kitchen,k4_zo.png,m,1,1097,1,4,shorts.png,k4_zo.png,148444,234420,42,Man
938867,OSSe4,v1,1920,-0.25066964834490457,937,1920,1080,5-23-2023,11-9-34,1,2,large,laundromat,scaled,shirt.png,1,zo,laundromat,l4_zo.png,c,1,1235,2,3,shirt.png,l4_zo.png,148444,234420,42,Man
938867,OSSe4,v1,1920,-1.209235152598428,937,1920,1080,5-23-2023,11-9-34,1,3,large,laundromat,misscaled,detergent.png,1,zi,laundromat,l1_zi.png,c,1,1034,3,4,detergent.png,l1_zi.png,148444,234420,42,Man
938867,OSSe4,v1,1920,0.8748102471965458,937,1920,1080,5-23-2023,11-9-34,1,4,small,classroom,misscaled,eraser.png,0,zo,laundromat,l1_zo.png,c,0,1471,4,1,eraser.png,l1_zo.png,148444,234420,42,Man
938867,OSSe4,v1,1920,0.4551397776726151,937,1920,1080,5-23-2023,11-9-34,1,5,large,kitchen,misscaled,kettle.png,0,zi,classroom,c4_zi.png,m,1,1383,5,2,kettle.png,c4_zi.png,148444,234420,42,Man
938867,OSSe4,v1,1920,-0.36989421355056673,937,1920,1080,5-23-2023,11-9-34,1,6,small,laundromat,misscaled,socks.png,0,zo,bathroom,b4_zo.png,m,1,1210,6,2,socks.png,b4_zo.png,148444,234420,42,Man
938867,OSSe4,v1,1920,-0.23159371791199865,937,1920,1080,5-23-2023,11-9-34,1,7,small,laundromat,misscaled,coins.png,1,zo,laundromat,l3_zo.png,c,1,1239,7,1,coins.png,l3_zo.png,148444,234420,42,Man
938867,OSSe4,v1,1920,-0.8563304395896681,937,1920,1080,5-23-2023,11-9-34,1,8,small,kitchen,scaled,spoon.png,0,zi,classroom,c0_zi.png,m,1,1108,8,2,spoon.png,c0_zi.png,148444,234420,42,Man
938867,OSSe4,v1,1920,-0.5272706396220407,937,1920,1080,5-23-2023,11-9-34,1,9,large,kitchen,scaled,toaster.png,0,zo,classroom,c5_zo.png,m,1,1177,9,2,toaster.png,c5_zo.png,148444,234420,42,Man
938867,OSSe4,v1,1920,1.666461360162142,937,1920,1080,5-23-2023,11-9-34,1,10,small,bathroom,misscaled,lipstick.png,1,zo,bathroom,b5_zo.png,c,1,1637,10,1,lipstick.png,b5_zo.png,148444,234420,42,Man
938867,OSSe4,v1,1920,-0.06467932662407169,937,1920,1080,5-23-2023,11-9-34,1,11,large,kitchen,misscaled,pot.png,1,zi,kitchen,k1_zi.png,c,1,1274,11,3,pot.png,k1_zi.png,148444,234420,42,Man
938867,OSSe4,v1,1920,-1.190159222165522,937,1920,1080,5-23-2023,11-9-34,1,12,large,classroom,misscaled,notebook.png,0,zi,kitchen,k2_zi.png,m,1,1038,12,1,notebook.png,k2_zi.png,148444,234420,42,Man
938867,OSSe4,v1,1920,0.3406841950751795,937,1920,1080,5-23-2023,11-9-34,1,13,small,bathroom,scaled,nailclipper.png,1,zi,bathroom,b2_zi.png,c,1,1359,13,3,nailclipper.png,b2_zi.png,148444,234420,42,Man
938867,OSSe4,v1,1920,1.4375501949672709,937,1920,1080,5-23-2023,11-9-34,1,14,small,laundromat,scaled,tidepod.png,1,zi,laundromat,l2_zi.png,c,1,1589,14,2,tidepod.png,l2_zi.png,148444,234420,42,Man
938867,OSSe4,v1,1920,-0.9517100917541979,937,1920,1080,5-23-2023,11-9-34,1,15,small,classroom,scaled,paperclip.png,0,zi,laundromat,l4_zi.png,m,1,1088,15,2,paperclip.png,l4_zi.png,148444,234420,42,Man
122679,OSSe4,v1,1536,1.8406944914250054,714,1536,864,5-23-2023,13-37-52,2,0,large,laundromat,misscaled,shirt.png,1,zi,laundromat,l2_zi.png,c,1,1882,0,2,shirt.png,l2_zi.png,235825,383138,71,Woman
122679,OSSe4,v1,1536,0.6190599305474287,714,1536,864,5-23-2023,13-37-52,2,1,large,laundromat,scaled,shorts.png,0,zo,kitchen,k0_zo.png,m,1,1551,1,4,shorts.png,k0_zo.png,235825,383138,71,Woman
122679,OSSe4,v1,1536,-0.4254191653086264,714,1536,864,5-23-2023,13-37-52,2,2,large,bathroom,scaled,hairdryer.png,0,zo,kitchen,k4_zo.png,m,1,1268,2,1,hairdryer.png,k4_zo.png,235825,383138,71,Woman
122679,OSSe4,v1,1536,0.7777617012958752,714,1536,864,5-23-2023,13-37-52,2,3,small,kitchen,misscaled,sponge.png,0,zo,bathroom,b1_zo.png,c,0,1594,3,1,sponge.png,b1_zo.png,235825,383138,71,Woman
122679,OSSe4,v1,1536,2.191314682613434,714,1536,864,5-23-2023,13-37-52,2,4,small,bathroom,misscaled,floss.png,0,zo,kitchen,k3_zo.png,c,0,1977,4,1,floss.png,k3_zo.png,235825,383138,71,Woman
122679,OSSe4,v1,1536,0.2056971788305447,714,1536,864,5-23-2023,13-37-52,2,5,large,bathroom,misscaled,tissuebox.png,1,zi,bathroom,b2_zi.png,c,1,1439,5,3,tissuebox.png,b2_zi.png,235825,383138,71,Woman
122679,OSSe4,v1,1536,-0.3663673436347858,714,1536,864,5-23-2023,13-37-52,2,6,large,laundromat,scaled,detergent.png,1,zo,laundromat,l1_zo.png,m,0,1284,6,1,detergent.png,l1_zo.png,235825,383138,71,Woman
122679,OSSe4,v1,1536,-0.5472135475109225,714,1536,864,5-23-2023,13-37-52,2,7,large,classroom,misscaled,computer.png,0,zi,laundromat,l4_zi.png,m,1,1235,7,1,computer.png,l4_zi.png,235825,383138,71,Woman
122679,OSSe4,v1,1536,-0.595193152620918,714,1536,864,5-23-2023,13-37-52,2,8,small,classroom,scaled,paperclip.png,1,zi,classroom,c4_zi.png,c,1,1222,8,3,paperclip.png,c4_zi.png,235825,383138,71,Woman
122679,OSSe4,v1,1536,0.31272860561438076,714,1536,864,5-23-2023,13-37-52,2,10,small,bathroom,misscaled,nailclipper.png,1,zo,bathroom,b4_zo.png,c,1,1468,10,1,nailclipper.png,b4_zo.png,235825,383138,71,Woman
122679,OSSe4,v1,1536,-1.2336909744693192,714,1536,864,5-23-2023,13-37-52,2,11,small,classroom,scaled,eraser.png,0,zi,kitchen,k1_zi.png,m,1,1049,11,1,eraser.png,k1_zi.png,235825,383138,71,Woman
122679,OSSe4,v1,1536,-0.79449305077013,714,1536,864,5-23-2023,13-37-52,2,12,large,classroom,misscaled,clipboard.png,0,zi,bathroom,b5_zi.png,m,1,1168,12,1,clipboard.png,b5_zi.png,235825,383138,71,Woman
122679,OSSe4,v1,1536,-0.25933591685094975,714,1536,864,5-23-2023,13-37-52,2,13,large,classroom,scaled,notebook.png,1,zo,classroom,c5_zo.png,c,1,1313,13,2,notebook.png,c5_zo.png,235825,383138,71,Woman
122679,OSSe4,v1,1536,-0.8203282227524352,714,1536,864,5-23-2023,13-37-52,2,14,small,laundromat,misscaled,socks.png,1,zo,laundromat,l3_zo.png,c,1,1161,14,1,socks.png,l3_zo.png,235825,383138,71,Woman
122679,OSSe4,v1,1536,-0.905215216408581,714,1536,864,5-23-2023,13-37-52,2,15,small,classroom,scaled,binderclip.png,1,zi,classroom,c3_zi.png,c,1,1138,15,4,binderclip.png,c3_zi.png,235825,383138,71,Woman
336176,OSSe4,v1,1366,-0.1626159738456209,625,1366,768,5-19-2023,11-3-23,1,0,small,bathroom,scaled,floss.png,0,zi,laundromat,l4_zi.png,m,1,1631,0,3,floss.png,l4_zi.png,117823,165509,35,Woman
336176,OSSe4,v1,1366,-0.5775381751527482,625,1366,768,5-19-2023,11-3-23,1,1,small,bathroom,misscaled,lipstick.png,1,zo,bathroom,b5_zo.png,m,0,1565,1,4,lipstick.png,b5_zo.png,117823,165509,35,Woman
336176,OSSe4,v1,1366,1.635380231818597,625,1366,768,5-19-2023,11-3-23,1,2,small,laundromat,scaled,socks.png,1,zi,laundromat,l2_zi.png,c,1,1917,2,4,socks.png,l2_zi.png,117823,165509,35,Woman
336176,OSSe4,v1,1366,-0.9861736764400705,625,1366,768,5-19-2023,11-3-23,1,3,small,bathroom,misscaled,nailclipper.png,0,zo,laundromat,l4_zo.png,m,1,1500,3,4,nailclipper.png,l4_zo.png,117823,165509,35,Woman
336176,OSSe4,v1,1366,1.2456048305906897,625,1366,768,5-19-2023,11-3-23,1,4,large,laundromat,misscaled,detergent.png,0,zi,classroom,c4_zi.png,m,1,1855,4,3,detergent.png,c4_zi.png,117823,165509,35,Woman
336176,OSSe4,v1,1366,1.1324442302342004,625,1366,768,5-19-2023,11-3-23,1,6,small,classroom,scaled,paperclip.png,1,zi,classroom,c3_zi.png,c,1,1837,6,3,paperclip.png,c3_zi.png,117823,165509,35,Woman
336176,OSSe4,v1,1366,-0.30092337428133,625,1366,768,5-19-2023,11-3-23,1,7,small,laundromat,scaled,coins.png,0,zi,bathroom,b5_zi.png,m,1,1609,7,4,coins.png,b5_zi.png,117823,165509,35,Woman
336176,OSSe4,v1,1366,0.4409072280556551,625,1366,768,5-19-2023,11-3-23,1,8,large,classroom,scaled,notebook.png,1,zo,classroom,c3_zo.png,c,1,1727,8,4,notebook.png,c3_zo.png,117823,165509,35,Woman
336176,OSSe4,v1,1366,1.8868482326107954,625,1366,768,5-19-2023,11-3-23,1,9,large,classroom,scaled,computer.png,1,zo,classroom,c5_zo.png,m,0,1957,9,4,computer.png,c5_zo.png,117823,165509,35,Woman
336176,OSSe4,v1,1366,-0.9044465761826059,625,1366,768,5-19-2023,11-3-23,1,10,large,bathroom,scaled,loofah.png,0,zo,classroom,c2_zo.png,m,1,1513,10,3,loofah.png,c2_zo.png,117823,165509,35,Woman
336176,OSSe4,v1,1366,-0.596398275212163,625,1366,768,5-19-2023,11-3-23,1,11,large,classroom,misscaled,clipboard.png,1,zi,classroom,c0_zi.png,c,1,1562,11,3,clipboard.png,c0_zi.png,117823,165509,35,Woman
336176,OSSe4,v1,1366,-0.3575036744595746,625,1366,768,5-19-2023,11-3-23,1,12,large,kitchen,scaled,kettle.png,0,zo,laundromat,l3_zo.png,m,1,1600,12,4,kettle.png,l3_zo.png,117823,165509,35,Woman
336176,OSSe4,v1,1366,-0.8415795759845563,625,1366,768,5-19-2023,11-3-23,1,13,large,laundromat,misscaled,shorts.png,1,zi,laundromat,l1_zi.png,c,1,1523,13,4,shorts.png,l1_zi.png,117823,165509,35,Woman
336176,OSSe4,v1,1366,-0.8352928759647514,625,1366,768,5-19-2023,11-3-23,1,14,small,classroom,misscaled,eraser.png,0,zo,bathroom,b4_zo.png,m,1,1524,14,2,eraser.png,b4_zo.png,117823,165509,35,Woman
336176,OSSe4,v1,1366,-0.7787125757865068,625,1366,768,5-19-2023,11-3-23,1,15,large,laundromat,misscaled,shirt.png,0,zi,bathroom,b1_zi.png,m,1,1533,15,3,shirt.png,b1_zi.png,117823,165509,35,Woman
579659,OSSe4,v1,1536,2.1919635422089954,714,1536,864,5-19-2023,10-58-35,2,0,large,classroom,misscaled,notebook.png,0,zi,kitchen,k5_zi.png,m,1,1834,0,3,notebook.png,k5_zi.png,168404,321455,51,Woman
579659,OSSe4,v1,1536,0.908227183040888,714,1536,864,5-19-2023,10-58-35,2,1,small,classroom,misscaled,eraser.png,0,zo,laundromat,l3_zo.png,m,1,1440,1,1,eraser.png,l3_zo.png,168404,321455,51,Woman
579659,OSSe4,v1,1536,-0.5514527380436602,714,1536,864,5-19-2023,10-58-35,2,2,small,bathroom,misscaled,lipstick.png,1,zo,bathroom,b4_zo.png,c,1,992,2,1,lipstick.png,b4_zo.png,168404,321455,51,Woman
579659,OSSe4,v1,1536,-0.46348095708543974,714,1536,864,5-19-2023,10-58-35,2,3,small,classroom,misscaled,binderclip.png,1,zo,classroom,c5_zo.png,c,1,1019,3,2,binderclip.png,c5_zo.png,168404,321455,51,Woman
579659,OSSe4,v1,1536,-0.4211241736611113,714,1536,864,5-19-2023,10-58-35,2,4,small,kitchen,scaled,saltshaker.png,0,zi,classroom,c0_zi.png,m,1,1032,4,4,saltshaker.png,c0_zi.png,168404,321455,51,Woman
579659,OSSe4,v1,1536,-0.5025795264002044,714,1536,864,5-19-2023,10-58-35,2,5,large,classroom,scaled,clipboard.png,1,zo,classroom,c2_zo.png,c,1,1007,5,2,clipboard.png,c2_zo.png,168404,321455,51,Woman
579659,OSSe4,v1,1536,-0.32011953626463585,714,1536,864,5-19-2023,10-58-35,2,6,large,classroom,scaled,computer.png,0,zo,kitchen,k4_zo.png,m,1,1063,6,4,computer.png,k4_zo.png,168404,321455,51,Woman
579659,OSSe4,v1,1536,0.36736364085330986,714,1536,864,5-19-2023,10-58-35,2,7,small,bathroom,scaled,nailclipper.png,1,zi,bathroom,b1_zi.png,c,1,1274,7,4,nailclipper.png,b1_zi.png,168404,321455,51,Woman
579659,OSSe4,v1,1536,-0.5677438085914789,714,1536,864,5-19-2023,10-58-35,2,8,small,laundromat,scaled,tidepod.png,0,zi,bathroom,b5_zi.png,c,0,987,8,1,tidepod.png,b5_zi.png,168404,321455,51,Woman
579659,OSSe4,v1,1536,2.0714096201551375,714,1536,864,5-19-2023,10-58-35,2,9,large,bathroom,scaled,loofah.png,0,zo,laundromat,l1_zo.png,c,0,1797,9,2,loofah.png,l1_zo.png,168404,321455,51,Woman
579659,OSSe4,v1,1536,-0.8088516526991945,714,1536,864,5-19-2023,10-58-35,2,10,large,laundromat,scaled,shirt.png,1,zo,laundromat,l4_zo.png,c,1,913,10,4,shirt.png,l4_zo.png,168404,321455,51,Woman
579659,OSSe4,v1,1536,0.9245182535887067,714,1536,864,5-19-2023,10-58-35,2,11,small,laundromat,misscaled,socks.png,0,zo,bathroom,b5_zo.png,m,1,1445,11,4,socks.png,b5_zo.png,168404,321455,51,Woman
579659,OSSe4,v1,1536,-0.6752648742070818,714,1536,864,5-19-2023,10-58-35,2,12,large,kitchen,misscaled,kettle.png,1,zi,kitchen,k2_zi.png,c,1,954,12,1,kettle.png,k2_zi.png,168404,321455,51,Woman
579659,OSSe4,v1,1536,-0.9000816477669787,714,1536,864,5-19-2023,10-58-35,2,13,large,kitchen,misscaled,toaster.png,1,zi,kitchen,k1_zi.png,c,1,885,13,1,toaster.png,k1_zi.png,168404,321455,51,Woman
579659,OSSe4,v1,1536,-0.5514527380436602,714,1536,864,5-19-2023,10-58-35,2,14,small,classroom,scaled,paperclip.png,1,zi,classroom,c4_zi.png,c,1,992,14,1,paperclip.png,c4_zi.png,168404,321455,51,Woman
579659,OSSe4,v1,1536,-0.7013305870835915,714,1536,864,5-19-2023,10-58-35,2,15,large,kitchen,misscaled,pot.png,0,zi,classroom,c3_zi.png,m,1,946,15,1,pot.png,c3_zi.png,168404,321455,51,Woman
428683,OSSe4,v1,1504,0.2603734453891698,860,1504,1003,5-19-2023,11-7-31,1,0,large,bathroom,scaled,loofah.png,1,zo,bathroom,b4_zo.png,c,1,1263,0,2,loofah.png,b4_zo.png,168543,321780,33,Woman
428683,OSSe4,v1,1504,0.621742809857281,860,1504,1003,5-19-2023,11-7-31,1,1,small,bathroom,scaled,floss.png,0,zi,laundromat,l4_zi.png,c,0,1316,1,1,floss.png,l4_zi.png,168543,321780,33,Woman
428683,OSSe4,v1,1504,-0.08054104939206726,860,1504,1003,5-19-2023,11-7-31,1,2,small,laundromat,misscaled,tidepod.png,0,zo,kitchen,k4_zo.png,c,0,1213,2,1,tidepod.png,k4_zo.png,168543,321780,33,Woman
428683,OSSe4,v1,1504,-0.5578213420857991,860,1504,1003,5-19-2023,11-7-31,1,3,large,kitchen,scaled,toaster.png,1,zo,kitchen,k3_zo.png,c,1,1143,3,3,toaster.png,k3_zo.png,168543,321780,33,Woman
428683,OSSe4,v1,1504,1.883126440547858,860,1504,1003,5-19-2023,11-7-31,1,4,small,bathroom,misscaled,lipstick.png,0,zo,classroom,c3_zo.png,m,1,1501,4,1,lipstick.png,c3_zo.png,168543,321780,33,Woman
428683,OSSe4,v1,1504,0.19900883632854713,860,1504,1003,5-19-2023,11-7-31,1,5,large,kitchen,misscaled,kettle.png,0,zi,laundromat,l2_zi.png,m,1,1254,5,4,kettle.png,l2_zi.png,168543,321780,33,Woman
428683,OSSe4,v1,1504,1.3444815387935036,860,1504,1003,5-19-2023,11-7-31,1,6,large,kitchen,misscaled,pot.png,1,zi,kitchen,k5_zi.png,c,1,1422,6,1,pot.png,k5_zi.png,168543,321780,33,Woman
428683,OSSe4,v1,1504,1.3785729882716273,860,1504,1003,5-19-2023,11-7-31,1,7,large,bathroom,scaled,tissuebox.png,0,zo,kitchen,k0_zo.png,m,1,1427,7,4,tissuebox.png,k0_zo.png,168543,321780,33,Woman
428683,OSSe4,v1,1504,-0.21690684730456206,860,1504,1003,5-19-2023,11-7-31,1,8,small,classroom,scaled,binderclip.png,0,zi,laundromat,l1_zi.png,m,1,1193,8,1,binderclip.png,l1_zi.png,168543,321780,33,Woman
428683,OSSe4,v1,1504,0.16491738685042343,860,1504,1003,5-19-2023,11-7-31,1,9,small,bathroom,misscaled,nailclipper.png,1,zo,bathroom,b5_zo.png,c,1,1249,9,1,nailclipper.png,b5_zo.png,168543,321780,33,Woman
428683,OSSe4,v1,1504,-1.4578356083082649,860,1504,1003,5-19-2023,11-7-31,1,10,small,kitchen,scaled,saltshaker.png,1,zi,kitchen,k2_zi.png,c,1,1011,10,4,saltshaker.png,k2_zi.png,168543,321780,33,Woman
428683,OSSe4,v1,1504,-1.5260185072645123,860,1504,1003,5-19-2023,11-7-31,1,11,small,classroom,misscaled,paperclip.png,1,zo,classroom,c5_zo.png,c,1,1001,11,1,paperclip.png,c5_zo.png,168543,321780,33,Woman
428683,OSSe4,v1,1504,-1.4373807386213906,860,1504,1003,5-19-2023,11-7-31,1,12,small,classroom,scaled,eraser.png,1,zi,classroom,c3_zi.png,c,1,1014,12,4,eraser.png,c3_zi.png,168543,321780,33,Woman
428683,OSSe4,v1,1504,-0.12826907866144044,860,1504,1003,5-19-2023,11-7-31,1,13,large,laundromat,scaled,shorts.png,0,zo,classroom,c2_zo.png,m,1,1206,13,2,shorts.png,c2_zo.png,168543,321780,33,Woman
428683,OSSe4,v1,1504,0.1103710676854255,860,1504,1003,5-19-2023,11-7-31,1,14,large,classroom,misscaled,notebook.png,0,zi,kitchen,k1_zi.png,m,1,1241,14,2,notebook.png,k1_zi.png,168543,321780,33,Woman
428683,OSSe4,v1,1504,-0.5578213420857991,860,1504,1003,5-19-2023,11-7-31,1,15,large,classroom,misscaled,clipboard.png,1,zi,classroom,c0_zi.png,c,1,1143,15,1,clipboard.png,c0_zi.png,168543,321780,33,Woman
879855,OSSe4,v1,1920,1.0763815139216575,929,1920,1080,5-23-2023,13-52-42,2,0,large,laundromat,scaled,shorts.png,0,zo,kitchen,k4_zo.png,m,1,1693,0,3,shorts.png,k4_zo.png,193384,340703,49,Man
879855,OSSe4,v1,1920,-1.155363412403209,929,1920,1080,5-23-2023,13-52-42,2,1,large,bathroom,misscaled,loofah.png,0,zi,kitchen,k5_zi.png,c,0,1142,1,3,loofah.png,k5_zi.png,193384,340703,49,Man
879855,OSSe4,v1,1920,0.40807314215468293,929,1920,1080,5-23-2023,13-52-42,2,2,large,kitchen,misscaled,kettle.png,0,zi,laundromat,l1_zi.png,m,1,1528,2,1,kettle.png,l1_zi.png,193384,340703,49,Man
879855,OSSe4,v1,1920,-0.3290912436731314,929,1920,1080,5-23-2023,13-52-42,2,3,large,bathroom,misscaled,hairdryer.png,1,zi,bathroom,b1_zi.png,m,0,1346,3,1,hairdryer.png,b1_zi.png,193384,340703,49,Man
879855,OSSe4,v1,1920,1.9067040364200198,929,1920,1080,5-23-2023,13-52-42,2,4,small,classroom,misscaled,eraser.png,1,zo,classroom,c2_zo.png,c,1,1898,4,3,eraser.png,c2_zo.png,193384,340703,49,Man
879855,OSSe4,v1,1920,0.07999448692362271,929,1920,1080,5-23-2023,13-52-42,2,5,large,kitchen,misscaled,toaster.png,1,zi,kitchen,k1_zi.png,c,1,1447,5,1,toaster.png,k1_zi.png,193384,340703,49,Man
879855,OSSe4,v1,1920,-0.1954295693197365,929,1920,1080,5-23-2023,13-52-42,2,6,small,classroom,scaled,binderclip.png,0,zi,bathroom,b2_zi.png,m,1,1379,6,1,binderclip.png,b2_zi.png,193384,340703,49,Man
879855,OSSe4,v1,1920,1.5664743198841056,929,1920,1080,5-23-2023,13-52-42,2,7,small,laundromat,scaled,socks.png,1,zi,laundromat,l2_zi.png,c,1,1814,7,4,socks.png,l2_zi.png,193384,340703,49,Man
879855,OSSe4,v1,1920,-0.6571698989041916,929,1920,1080,5-23-2023,13-52-42,2,8,large,bathroom,scaled,tissuebox.png,1,zo,bathroom,b5_zo.png,c,1,1265,8,4,tissuebox.png,b5_zo.png,193384,340703,49,Man
879855,OSSe4,v1,1920,-1.3335789782077356,929,1920,1080,5-23-2023,13-52-42,2,9,small,kitchen,scaled,sponge.png,1,zi,kitchen,k2_zi.png,c,1,1098,9,2,sponge.png,k2_zi.png,193384,340703,49,Man
879855,OSSe4,v1,1920,-1.0946081058789388,929,1920,1080,5-23-2023,13-52-42,2,10,small,classroom,misscaled,paperclip.png,1,zo,classroom,c5_zo.png,c,1,1157,10,3,paperclip.png,c5_zo.png,193384,340703,49,Man
879855,OSSe4,v1,1920,-0.43035008788024876,929,1920,1080,5-23-2023,13-52-42,2,11,small,bathroom,misscaled,nailclipper.png,0,zo,kitchen,k0_zo.png,m,1,1321,11,3,nailclipper.png,k0_zo.png,193384,340703,49,Man
879855,OSSe4,v1,1920,-0.7381769742698855,929,1920,1080,5-23-2023,13-52-42,2,12,large,classroom,scaled,clipboard.png,1,zo,classroom,c3_zo.png,c,1,1245,12,4,clipboard.png,c3_zo.png,193384,340703,49,Man
879855,OSSe4,v1,1920,0.618691538105487,929,1920,1080,5-23-2023,13-52-42,2,13,small,laundromat,misscaled,tidepod.png,0,zo,bathroom,b4_zo.png,m,1,1580,13,2,tidepod.png,b4_zo.png,193384,340703,49,Man
879855,OSSe4,v1,1920,1.0156262073973872,929,1920,1080,5-23-2023,13-52-42,2,14,small,kitchen,scaled,spoon.png,0,zi,classroom,c3_zi.png,m,1,1678,14,3,spoon.png,c3_zi.png,193384,340703,49,Man
879855,OSSe4,v1,1920,-0.7381769742698855,929,1920,1080,5-23-2023,13-52-42,2,15,large,classroom,scaled,notebook.png,0,zo,kitchen,k3_zo.png,m,1,1245,15,2,notebook.png,k3_zo.png,193384,340703,49,Man
277569,OSSe4,v1,1280,0.8614628428201866,720,1280,720,5-19-2023,10-14-43,2,0,large,laundromat,misscaled,shorts.png,0,zi,kitchen,k5_zi.png,m,1,1123,0,1,shorts.png,k5_zi.png,202728,403160,48,Man
277569,OSSe4,v1,1280,-0.2364415540375842,720,1280,720,5-19-2023,10-14-43,2,1,large,laundromat,scaled,detergent.png,1,zo,laundromat,l1_zo.png,c,1,948,1,2,detergent.png,l1_zo.png,202728,403160,48,Man
277569,OSSe4,v1,1280,1.1249598980660516,720,1280,720,5-19-2023,10-14-43,2,2,small,bathroom,misscaled,nailclipper.png,1,zo,bathroom,b1_zo.png,c,1,1165,2,1,nailclipper.png,b1_zo.png,202728,403160,48,Man
277569,OSSe4,v1,1280,-0.6379608763169976,720,1280,720,5-19-2023,10-14-43,2,3,large,bathroom,scaled,loofah.png,0,zo,kitchen,k0_zo.png,m,1,884,3,2,loofah.png,k0_zo.png,202728,403160,48,Man
277569,OSSe4,v1,1280,0.32819499291784077,720,1280,720,5-19-2023,10-14-43,2,4,small,laundromat,misscaled,tidepod.png,0,zo,classroom,c2_zo.png,m,1,1038,4,1,tidepod.png,c2_zo.png,202728,403160,48,Man
277569,OSSe4,v1,1280,-0.76970940393993,720,1280,720,5-19-2023,10-14-43,2,5,small,kitchen,scaled,spoon.png,0,zi,bathroom,b2_zi.png,m,1,863,5,4,spoon.png,b2_zi.png,202728,403160,48,Man
277569,OSSe4,v1,1280,-1.265334817378581,720,1280,720,5-19-2023,10-14-43,2,6,large,laundromat,misscaled,shirt.png,0,zi,bathroom,b5_zi.png,m,1,784,6,1,shirt.png,b5_zi.png,202728,403160,48,Man
277569,OSSe4,v1,1280,-1.3719883873590502,720,1280,720,5-19-2023,10-14-43,2,7,large,kitchen,misscaled,pot.png,1,zi,kitchen,k2_zi.png,c,1,767,7,2,pot.png,k2_zi.png,202728,403160,48,Man
277569,OSSe4,v1,1280,-1.1210388109344167,720,1280,720,5-19-2023,10-14-43,2,8,small,classroom,misscaled,eraser.png,1,zo,classroom,c3_zo.png,m,0,807,8,1,eraser.png,c3_zo.png,202728,403160,48,Man
277569,OSSe4,v1,1280,-0.35564260283928506,720,1280,720,5-19-2023,10-14-43,2,9,large,classroom,misscaled,notebook.png,1,zi,classroom,c0_zi.png,c,1,929,9,1,notebook.png,c0_zi.png,202728,403160,48,Man
277569,OSSe4,v1,1280,1.1814235527615942,720,1280,720,5-19-2023,10-14-43,2,10,small,bathroom,scaled,lipstick.png,1,zi,bathroom,b1_zi.png,c,1,1174,10,4,lipstick.png,b1_zi.png,202728,403160,48,Man
277569,OSSe4,v1,1280,1.8966298455717991,720,1280,720,5-19-2023,10-14-43,2,11,small,bathroom,scaled,floss.png,0,zi,kitchen,k1_zi.png,c,0,1288,11,1,floss.png,k1_zi.png,202728,403160,48,Man
277569,OSSe4,v1,1280,1.18769729217221,720,1280,720,5-19-2023,10-14-43,2,12,small,laundromat,scaled,coins.png,1,zi,laundromat,l2_zi.png,c,1,1175,12,3,coins.png,l2_zi.png,202728,403160,48,Man
277569,OSSe4,v1,1280,-0.06705058995095672,720,1280,720,5-19-2023,10-14-43,2,13,large,bathroom,scaled,tissuebox.png,1,zo,bathroom,b5_zo.png,c,1,975,13,3,tissuebox.png,b5_zo.png,202728,403160,48,Man
277569,OSSe4,v1,1280,-0.010586935255414218,720,1280,720,5-19-2023,10-14-43,2,14,small,kitchen,misscaled,saltshaker.png,0,zo,classroom,c5_zo.png,m,1,984,14,1,saltshaker.png,c5_zo.png,202728,403160,48,Man
277569,OSSe4,v1,1280,-0.7446144462974668,720,1280,720,5-19-2023,10-14-43,2,15,large,kitchen,scaled,toaster.png,0,zo,bathroom,b4_zo.png,m,1,867,15,2,toaster.png,b4_zo.png,202728,403160,48,Man
913779,OSSe4,v1,1600,1.4167233624706241,914,800,600,5-23-2023,10-25-38,2,0,small,classroom,misscaled,binderclip.png,0,zo,laundromat,l1_zo.png,m,1,1555,0,2,binderclip.png,l1_zo.png,183444,411280,49,Man
913779,OSSe4,v1,1600,-0.012763273535771388,914,800,600,5-23-2023,10-25-38,2,1,large,laundromat,scaled,shorts.png,1,zo,laundromat,l4_zo.png,c,1,1352,1,3,shorts.png,l4_zo.png,183444,411280,49,Man
913779,OSSe4,v1,1600,2.515245112308051,914,800,600,5-23-2023,10-25-38,2,2,large,classroom,misscaled,computer.png,1,zi,classroom,c3_zi.png,c,1,1711,2,1,computer.png,c3_zi.png,183444,411280,49,Man
913779,OSSe4,v1,1600,0.642124692713464,914,800,600,5-23-2023,10-25-38,2,3,large,bathroom,scaled,tissuebox.png,0,zo,laundromat,l3_zo.png,m,1,1445,3,3,tissuebox.png,l3_zo.png,183444,411280,49,Man
913779,OSSe4,v1,1600,-1.350706430389048,914,800,600,5-23-2023,10-25-38,2,4,small,kitchen,misscaled,saltshaker.png,1,zo,kitchen,k0_zo.png,c,1,1162,4,3,saltshaker.png,k0_zo.png,183444,411280,49,Man
913779,OSSe4,v1,1600,0.17032368477046644,914,800,600,5-23-2023,10-25-38,2,5,large,kitchen,scaled,toaster.png,1,zo,kitchen,k3_zo.png,c,1,1378,5,2,toaster.png,k3_zo.png,183444,411280,49,Man
913779,OSSe4,v1,1600,-0.012763273535771388,914,800,600,5-23-2023,10-25-38,2,6,small,bathroom,scaled,nailclipper.png,0,zi,laundromat,l1_zi.png,m,1,1352,6,3,nailclipper.png,l1_zi.png,183444,411280,49,Man
913779,OSSe4,v1,1600,0.564664825737748,914,800,600,5-23-2023,10-25-38,2,7,small,classroom,scaled,eraser.png,0,zi,bathroom,b2_zi.png,m,1,1434,7,4,eraser.png,b2_zi.png,183444,411280,49,Man
913779,OSSe4,v1,1600,-1.153535859905407,914,800,600,5-23-2023,10-25-38,2,8,small,bathroom,misscaled,lipstick.png,1,zo,bathroom,b1_zo.png,m,0,1190,8,1,lipstick.png,b1_zo.png,183444,411280,49,Man
913779,OSSe4,v1,1600,-0.5479405362770821,914,800,600,5-23-2023,10-25-38,2,9,small,bathroom,scaled,floss.png,1,zi,bathroom,b5_zi.png,m,0,1276,9,2,floss.png,b5_zi.png,183444,411280,49,Man
913779,OSSe4,v1,1600,-1.0056579320426766,914,800,600,5-23-2023,10-25-38,2,10,large,classroom,scaled,clipboard.png,0,zo,kitchen,k4_zo.png,m,1,1211,10,3,clipboard.png,k4_zo.png,183444,411280,49,Man
913779,OSSe4,v1,1600,-0.3296445475273369,914,800,600,5-23-2023,10-25-38,2,11,small,kitchen,scaled,spoon.png,1,zi,kitchen,k5_zi.png,c,1,1307,11,4,spoon.png,k5_zi.png,183444,411280,49,Man
913779,OSSe4,v1,1600,0.42382870396371886,914,800,600,5-23-2023,10-25-38,2,12,small,laundromat,misscaled,tidepod.png,0,zo,classroom,c2_zo.png,m,1,1414,12,1,tidepod.png,c2_zo.png,183444,411280,49,Man
913779,OSSe4,v1,1600,-0.5549823423657835,914,800,600,5-23-2023,10-25-38,2,13,large,kitchen,misscaled,kettle.png,0,zi,bathroom,b1_zi.png,m,1,1275,13,2,kettle.png,b1_zi.png,183444,411280,49,Man
913779,OSSe4,v1,1600,0.14215646041566063,914,800,600,5-23-2023,10-25-38,2,14,large,classroom,misscaled,notebook.png,0,zi,kitchen,k2_zi.png,m,1,1374,14,2,notebook.png,k2_zi.png,183444,411280,49,Man
913779,OSSe4,v1,1600,-0.9070726468008562,914,800,600,5-23-2023,10-25-38,2,15,large,kitchen,misscaled,pot.png,1,zi,kitchen,k1_zi.png,c,1,1225,15,1,pot.png,k1_zi.png,183444,411280,49,Man
850785,OSSe4,v1,1440,0.17114019685309378,789,1440,900,5-19-2023,17-22-40,1,0,large,laundromat,scaled,shorts.png,1,zo,laundromat,l3_zo.png,c,1,1445,0,3,shorts.png,l3_zo.png,99882,161243,35,Woman
850785,OSSe4,v1,1440,-0.871582794533436,789,1440,900,5-19-2023,17-22-40,1,1,small,bathroom,misscaled,nailclipper.png,1,zo,bathroom,b4_zo.png,c,1,1207,1,2,nailclipper.png,b4_zo.png,99882,161243,35,Woman
850785,OSSe4,v1,1440,-1.2965581313590384,789,1440,900,5-19-2023,17-22-40,1,2,small,classroom,misscaled,eraser.png,0,zo,bathroom,b5_zo.png,c,0,1110,2,3,eraser.png,b5_zo.png,99882,161243,35,Woman
850785,OSSe4,v1,1440,-0.7795778247052129,789,1440,900,5-19-2023,17-22-40,1,3,large,laundromat,misscaled,shirt.png,0,zi,kitchen,k2_zi.png,m,1,1228,3,1,shirt.png,k2_zi.png,99882,161243,35,Woman
850785,OSSe4,v1,1440,1.792180141445598,789,1440,900,5-19-2023,17-22-40,1,4,large,classroom,misscaled,computer.png,1,zi,classroom,c3_zi.png,m,0,1815,4,1,computer.png,c3_zi.png,99882,161243,35,Woman
850785,OSSe4,v1,1440,0.5347788871265474,789,1440,900,5-19-2023,17-22-40,1,5,small,classroom,scaled,paperclip.png,1,zi,classroom,c0_zi.png,c,1,1528,5,1,paperclip.png,c0_zi.png,99882,161243,35,Woman
850785,OSSe4,v1,1440,-0.4027955673134415,789,1440,900,5-19-2023,17-22-40,1,6,large,laundromat,scaled,detergent.png,0,zo,classroom,c5_zo.png,m,1,1314,6,2,detergent.png,c5_zo.png,99882,161243,35,Woman
850785,OSSe4,v1,1440,-0.3107905974852183,789,1440,900,5-19-2023,17-22-40,1,7,large,classroom,misscaled,notebook.png,0,zi,kitchen,k5_zi.png,m,1,1335,7,2,notebook.png,k5_zi.png,99882,161243,35,Woman
850785,OSSe4,v1,1440,0.2456204105235602,789,1440,900,5-19-2023,17-22-40,1,8,small,bathroom,misscaled,floss.png,0,zo,laundromat,l4_zo.png,c,0,1462,8,1,floss.png,l4_zo.png,99882,161243,35,Woman
850785,OSSe4,v1,1440,-0.004107364724474251,789,1440,900,5-19-2023,17-22-40,1,9,small,classroom,scaled,binderclip.png,0,zi,bathroom,b5_zi.png,m,1,1405,9,2,binderclip.png,b5_zi.png,99882,161243,35,Woman
850785,OSSe4,v1,1440,-1.0512115451504433,789,1440,900,5-19-2023,17-22-40,1,10,small,laundromat,misscaled,tidepod.png,1,zo,laundromat,l1_zo.png,c,1,1166,10,1,tidepod.png,l1_zo.png,99882,161243,35,Woman
850785,OSSe4,v1,1440,-0.7050976110347464,789,1440,900,5-19-2023,17-22-40,1,11,large,kitchen,misscaled,pot.png,1,zi,kitchen,k1_zi.png,c,1,1245,11,3,pot.png,k1_zi.png,99882,161243,35,Woman
850785,OSSe4,v1,1440,0.2543827886024386,789,1440,900,5-19-2023,17-22-40,1,12,small,kitchen,scaled,spoon.png,0,zi,classroom,c4_zi.png,m,1,1464,12,1,spoon.png,c4_zi.png,99882,161243,35,Woman
850785,OSSe4,v1,1440,1.4767345306059756,789,1440,900,5-19-2023,17-22-40,1,13,small,laundromat,scaled,socks.png,1,zi,laundromat,l2_zi.png,c,1,1743,13,2,socks.png,l2_zi.png,99882,161243,35,Woman
850785,OSSe4,v1,1440,-0.9066323068489497,789,1440,900,5-19-2023,17-22-40,1,14,large,kitchen,scaled,kettle.png,1,zo,kitchen,k3_zo.png,c,1,1199,14,1,kettle.png,k3_zo.png,99882,161243,35,Woman
850785,OSSe4,v1,1440,1.853516787997747,789,1440,900,5-19-2023,17-22-40,1,15,large,bathroom,scaled,hairdryer.png,0,zo,kitchen,k4_zo.png,m,1,1829,15,2,hairdryer.png,k4_zo.png,99882,161243,35,Woman
901292,OSSe4,v1,1618,-0.5722099890799343,799,2560,1440,5-23-2023,16-4-49,1,0,small,laundromat,scaled,socks.png,1,zi,laundromat,l2_zi.png,c,1,920,0,4,socks.png,l2_zi.png,99673,142042,23,Woman
901292,OSSe4,v1,1618,0.6467088254662147,799,2560,1440,5-23-2023,16-4-49,1,1,small,bathroom,misscaled,lipstick.png,0,zo,laundromat,l1_zo.png,m,1,1282,1,1,lipstick.png,l1_zo.png,99673,142042,23,Woman
901292,OSSe4,v1,1618,0.5254903798207413,799,2560,1440,5-23-2023,16-4-49,1,2,large,classroom,misscaled,clipboard.png,1,zi,classroom,c0_zi.png,c,1,1246,2,2,clipboard.png,c0_zi.png,99673,142042,23,Woman
901292,OSSe4,v1,1618,-0.3567105301546482,799,2560,1440,5-23-2023,16-4-49,1,3,large,laundromat,scaled,shirt.png,0,zo,classroom,c3_zo.png,m,1,984,3,4,shirt.png,c3_zo.png,99673,142042,23,Woman
901292,OSSe4,v1,1618,-0.7506704785024366,799,2560,1440,5-23-2023,16-4-49,1,4,small,kitchen,misscaled,spoon.png,0,zo,laundromat,l3_zo.png,m,1,867,4,4,spoon.png,l3_zo.png,99673,142042,23,Woman
901292,OSSe4,v1,1618,-0.2725310540119584,799,2560,1440,5-23-2023,16-4-49,1,5,large,classroom,scaled,notebook.png,1,zo,classroom,c2_zo.png,c,1,1009,5,1,notebook.png,c2_zo.png,99673,142042,23,Woman
901292,OSSe4,v1,1618,-0.3971166787031393,799,2560,1440,5-23-2023,16-4-49,1,6,large,classroom,misscaled,computer.png,0,zi,kitchen,k2_zi.png,m,1,972,6,1,computer.png,k2_zi.png,99673,142042,23,Woman
901292,OSSe4,v1,1618,-0.7203658670910683,799,2560,1440,5-23-2023,16-4-49,1,7,large,kitchen,misscaled,kettle.png,0,zi,classroom,c4_zi.png,m,1,876,7,1,kettle.png,c4_zi.png,99673,142042,23,Woman
901292,OSSe4,v1,1618,0.9598564767170209,799,2560,1440,5-23-2023,16-4-49,1,8,small,laundromat,scaled,tidepod.png,1,zi,laundromat,l1_zi.png,c,1,1375,8,2,tidepod.png,l1_zi.png,99673,142042,23,Woman
901292,OSSe4,v1,1618,2.9633280089130394,799,2560,1440,5-23-2023,16-4-49,1,9,large,kitchen,scaled,pot.png,0,zo,classroom,c5_zo.png,m,1,1970,9,3,pot.png,c5_zo.png,99673,142042,23,Woman
901292,OSSe4,v1,1618,-0.3533433511089406,799,2560,1440,5-23-2023,16-4-49,1,10,large,kitchen,scaled,toaster.png,1,zo,kitchen,k3_zo.png,c,1,985,10,1,toaster.png,k3_zo.png,99673,142042,23,Woman
901292,OSSe4,v1,1618,-0.3533433511089406,799,2560,1440,5-23-2023,16-4-49,1,11,small,laundromat,misscaled,coins.png,1,zo,laundromat,l4_zo.png,c,1,985,11,1,coins.png,l4_zo.png,99673,142042,23,Woman
901292,OSSe4,v1,1618,-1.1513647849416404,799,2560,1440,5-23-2023,16-4-49,1,12,small,kitchen,scaled,sponge.png,0,zi,classroom,c3_zi.png,m,1,748,12,3,sponge.png,c3_zi.png,99673,142042,23,Woman
901292,OSSe4,v1,1618,-0.4711946177087064,799,2560,1440,5-23-2023,16-4-49,1,13,small,kitchen,misscaled,saltshaker.png,1,zo,kitchen,k0_zo.png,c,1,950,13,2,saltshaker.png,k0_zo.png,99673,142042,23,Woman
901292,OSSe4,v1,1618,-0.5520069148056886,799,2560,1440,5-23-2023,16-4-49,1,14,small,bathroom,scaled,floss.png,0,zi,kitchen,k1_zi.png,c,0,926,14,1,floss.png,k1_zi.png,99673,142042,23,Woman
901292,OSSe4,v1,1618,0.8554739263000856,799,2560,1440,5-23-2023,16-4-49,1,15,large,bathroom,misscaled,hairdryer.png,1,zi,bathroom,b1_zi.png,c,1,1344,15,1,hairdryer.png,b1_zi.png,99673,142042,23,Woman
799911,OSSe4,v1,2560,0.09581289124296534,1367,2560,1440,5-23-2023,13-43-1,1,0,small,classroom,scaled,binderclip.png,1,zi,classroom,c4_zi.png,c,1,1333,0,3,binderclip.png,c4_zi.png,197196,715810,46,Woman
799911,OSSe4,v1,2560,-1.240803409245914,1367,2560,1440,5-23-2023,13-43-1,1,1,small,kitchen,misscaled,saltshaker.png,0,zo,classroom,c2_zo.png,m,1,828,1,1,saltshaker.png,c2_zo.png,197196,715810,46,Woman
799911,OSSe4,v1,2560,-0.5261768723508696,1367,2560,1440,5-23-2023,13-43-1,1,2,small,classroom,misscaled,paperclip.png,0,zo,bathroom,b4_zo.png,m,1,1098,2,1,paperclip.png,b4_zo.png,197196,715810,46,Woman
799911,OSSe4,v1,2560,-1.031708978080327,1367,2560,1440,5-23-2023,13-43-1,1,3,large,classroom,scaled,clipboard.png,0,zo,kitchen,k3_zo.png,m,1,907,3,3,clipboard.png,k3_zo.png,197196,715810,46,Woman
799911,OSSe4,v1,2560,-0.3700177402145451,1367,2560,1440,5-23-2023,13-43-1,1,4,small,bathroom,misscaled,lipstick.png,1,zo,bathroom,b1_zo.png,c,1,1157,4,3,lipstick.png,b1_zo.png,197196,715810,46,Woman
799911,OSSe4,v1,2560,0.42930527512731936,1367,2560,1440,5-23-2023,13-43-1,1,5,small,laundromat,scaled,socks.png,1,zi,laundromat,l4_zi.png,c,1,1459,5,4,socks.png,l4_zi.png,197196,715810,46,Woman
799911,OSSe4,v1,2560,1.8612051138688714,1367,2560,1440,5-23-2023,13-43-1,1,6,small,classroom,misscaled,eraser.png,1,zo,classroom,c3_zo.png,m,0,2000,6,3,eraser.png,c3_zo.png,197196,715810,46,Woman
799911,OSSe4,v1,2560,1.4139018370716028,1367,2560,1440,5-23-2023,13-43-1,1,7,large,classroom,misscaled,notebook.png,0,zi,laundromat,l1_zi.png,c,0,1831,7,2,notebook.png,l1_zi.png,197196,715810,46,Woman
799911,OSSe4,v1,2560,1.4006680123142872,1367,2560,1440,5-23-2023,13-43-1,1,8,small,bathroom,scaled,floss.png,0,zi,classroom,c3_zi.png,m,1,1826,8,4,floss.png,c3_zi.png,197196,715810,46,Woman
799911,OSSe4,v1,2560,-0.10534124506823235,1367,2560,1440,5-23-2023,13-43-1,1,9,large,kitchen,misscaled,toaster.png,0,zi,laundromat,l2_zi.png,m,1,1257,9,4,toaster.png,l2_zi.png,197196,715810,46,Woman
799911,OSSe4,v1,2560,0.7654444239631366,1367,2560,1440,5-23-2023,13-43-1,1,11,large,kitchen,scaled,pot.png,1,zo,kitchen,k0_zo.png,c,1,1586,11,4,pot.png,k0_zo.png,197196,715810,46,Woman
799911,OSSe4,v1,2560,0.06934524172833406,1367,2560,1440,5-23-2023,13-43-1,1,12,small,laundromat,scaled,tidepod.png,0,zi,classroom,c0_zi.png,m,1,1323,12,3,tidepod.png,c0_zi.png,197196,715810,46,Woman
799911,OSSe4,v1,2560,-0.6188136456520791,1367,2560,1440,5-23-2023,13-43-1,1,13,large,classroom,scaled,computer.png,1,zo,classroom,c5_zo.png,c,1,1063,13,4,computer.png,c5_zo.png,197196,715810,46,Woman
799911,OSSe4,v1,2560,-0.867609551089613,1367,2560,1440,5-23-2023,13-43-1,1,14,large,bathroom,misscaled,tissuebox.png,1,zi,bathroom,b5_zi.png,c,1,969,14,4,tissuebox.png,b5_zi.png,197196,715810,46,Woman
799911,OSSe4,v1,2560,-1.2752113536149348,1367,2560,1440,5-23-2023,13-43-1,1,15,large,kitchen,scaled,kettle.png,0,zo,bathroom,b5_zo.png,m,1,815,15,3,kettle.png,b5_zo.png,197196,715810,46,Woman
375122,OSSe4,v1,1366,-1.2757562444936392,657,1366,768,5-19-2023,7-24-33,1,0,small,classroom,scaled,eraser.png,0,zi,laundromat,l4_zi.png,m,1,779,0,4,eraser.png,l4_zi.png,104243,261077,27,Man
375122,OSSe4,v1,1366,0.3056558848204644,657,1366,768,5-19-2023,7-24-33,1,1,large,bathroom,misscaled,loofah.png,1,zi,bathroom,b1_zi.png,c,1,952,1,3,loofah.png,b1_zi.png,104243,261077,27,Man
375122,OSSe4,v1,1366,1.201484721079321,657,1366,768,5-19-2023,7-24-33,1,2,large,kitchen,scaled,toaster.png,0,zo,bathroom,b4_zo.png,c,0,1050,2,2,toaster.png,b4_zo.png,104243,261077,27,Man
375122,OSSe4,v1,1366,1.4940002594495596,657,1366,768,5-19-2023,7-24-33,1,3,small,classroom,scaled,paperclip.png,1,zi,classroom,c0_zi.png,c,1,1082,3,3,paperclip.png,c0_zi.png,104243,261077,27,Man
375122,OSSe4,v1,1366,0.8815458509868721,657,1366,768,5-19-2023,7-24-33,1,4,small,bathroom,misscaled,lipstick.png,0,zo,laundromat,l3_zo.png,m,1,1015,4,4,lipstick.png,l3_zo.png,104243,261077,27,Man
375122,OSSe4,v1,1366,0.8906869615609421,657,1366,768,5-19-2023,7-24-33,1,5,small,laundromat,scaled,socks.png,0,zi,kitchen,k5_zi.png,m,1,1016,5,2,socks.png,k5_zi.png,104243,261077,27,Man
375122,OSSe4,v1,1366,-1.0106640378456104,657,1366,768,5-19-2023,7-24-33,1,6,large,bathroom,scaled,hairdryer.png,1,zo,bathroom,b1_zo.png,c,1,808,6,2,hairdryer.png,b1_zo.png,104243,261077,27,Man
375122,OSSe4,v1,1366,0.2782325530982545,657,1366,768,5-19-2023,7-24-33,1,7,small,laundromat,scaled,coins.png,1,zi,laundromat,l2_zi.png,c,1,949,7,4,coins.png,l2_zi.png,104243,261077,27,Man
375122,OSSe4,v1,1366,-1.595695114586088,657,1366,768,5-19-2023,7-24-33,1,8,small,kitchen,misscaled,saltshaker.png,0,zo,laundromat,l4_zo.png,m,1,744,8,4,saltshaker.png,l4_zo.png,104243,261077,27,Man
375122,OSSe4,v1,1366,0.4884780963018637,657,1366,768,5-19-2023,7-24-33,1,9,small,bathroom,misscaled,nailclipper.png,1,zo,bathroom,b5_zo.png,c,1,972,9,3,nailclipper.png,b5_zo.png,104243,261077,27,Man
375122,OSSe4,v1,1366,-0.9009707109567708,657,1366,768,5-19-2023,7-24-33,1,10,small,laundromat,misscaled,tidepod.png,1,zo,laundromat,l1_zo.png,c,1,820,10,4,tidepod.png,l1_zo.png,104243,261077,27,Man
375122,OSSe4,v1,1366,-1.14778069645666,657,1366,768,5-19-2023,7-24-33,1,11,large,classroom,scaled,notebook.png,1,zo,classroom,c5_zo.png,c,1,793,11,1,notebook.png,c5_zo.png,104243,261077,27,Man
375122,OSSe4,v1,1366,-0.7912773840679312,657,1366,768,5-19-2023,7-24-33,1,12,large,laundromat,misscaled,detergent.png,0,zi,classroom,c3_zi.png,m,1,832,12,1,detergent.png,c3_zi.png,104243,261077,27,Man
375122,OSSe4,v1,1366,-0.2976574130681532,657,1366,768,5-19-2023,7-24-33,1,13,large,kitchen,misscaled,kettle.png,0,zi,bathroom,b5_zi.png,m,1,886,13,1,kettle.png,b5_zi.png,104243,261077,27,Man
375122,OSSe4,v1,1366,1.0643680624682714,657,1366,768,5-19-2023,7-24-33,1,14,large,classroom,misscaled,computer.png,1,zi,classroom,c4_zi.png,c,1,1035,14,1,computer.png,c4_zi.png,104243,261077,27,Man
375122,OSSe4,v1,1366,0.415349211709304,657,1366,768,5-19-2023,7-24-33,1,15,large,bathroom,scaled,tissuebox.png,0,zo,kitchen,k0_zo.png,m,1,964,15,3,tissuebox.png,k0_zo.png,104243,261077,27,Man
607043,OSSe4,v1,1497,0.6706878725809664,694,1197,674,5-23-2023,15-11-46,1,0,large,classroom,scaled,notebook.png,1,zo,classroom,c2_zo.png,m,0,1306,0,2,notebook.png,c2_zo.png,176711,345560,36,Woman
607043,OSSe4,v1,1497,-0.5581115298148868,694,1197,674,5-23-2023,15-11-46,1,1,small,laundromat,scaled,socks.png,1,zi,laundromat,l1_zi.png,c,1,984,1,4,socks.png,l1_zi.png,176711,345560,36,Woman
607043,OSSe4,v1,1497,0.6058133699700052,694,1197,674,5-23-2023,15-11-46,1,2,small,laundromat,misscaled,tidepod.png,0,zo,classroom,c3_zo.png,m,1,1289,2,2,tidepod.png,c3_zo.png,176711,345560,36,Woman
607043,OSSe4,v1,1497,1.38049125408913,694,1197,674,5-23-2023,15-11-46,1,3,small,laundromat,misscaled,coins.png,0,zo,kitchen,k0_zo.png,m,1,1492,3,1,coins.png,k0_zo.png,176711,345560,36,Woman
607043,OSSe4,v1,1497,-0.42454637738055484,694,1197,674,5-23-2023,15-11-46,1,4,large,laundromat,scaled,shorts.png,1,zo,laundromat,l4_zo.png,c,1,1019,4,3,shorts.png,l4_zo.png,176711,345560,36,Woman
607043,OSSe4,v1,1497,0.8347822027145742,694,1197,674,5-23-2023,15-11-46,1,5,small,classroom,scaled,paperclip.png,1,zi,classroom,c4_zi.png,c,1,1349,5,3,paperclip.png,c4_zi.png,176711,345560,36,Woman
607043,OSSe4,v1,1497,0.7241139335546992,694,1197,674,5-23-2023,15-11-46,1,6,small,classroom,scaled,binderclip.png,0,zi,kitchen,k2_zi.png,m,1,1320,6,4,binderclip.png,k2_zi.png,176711,345560,36,Woman
607043,OSSe4,v1,1497,1.0446702993970955,694,1197,674,5-23-2023,15-11-46,1,7,large,bathroom,scaled,tissuebox.png,0,zo,laundromat,l3_zo.png,m,1,1404,7,3,tissuebox.png,l3_zo.png,176711,345560,36,Woman
607043,OSSe4,v1,1497,-1.0084169008792057,694,1197,674,5-23-2023,15-11-46,1,8,large,bathroom,misscaled,hairdryer.png,0,zi,laundromat,l4_zi.png,m,1,866,8,4,hairdryer.png,l4_zi.png,176711,345560,36,Woman
607043,OSSe4,v1,1497,-0.3253265498579083,694,1197,674,5-23-2023,15-11-46,1,9,large,classroom,misscaled,computer.png,0,zi,kitchen,k5_zi.png,m,1,1045,9,2,computer.png,k5_zi.png,176711,345560,36,Woman
607043,OSSe4,v1,1497,0.6325264004568716,694,1197,674,5-23-2023,15-11-46,1,10,large,kitchen,misscaled,toaster.png,1,zi,kitchen,k1_zi.png,c,1,1296,10,2,toaster.png,k1_zi.png,176711,345560,36,Woman
607043,OSSe4,v1,1497,-1.424376947031839,694,1197,674,5-23-2023,15-11-46,1,11,small,kitchen,scaled,spoon.png,0,zi,classroom,c0_zi.png,c,0,757,11,4,spoon.png,c0_zi.png,176711,345560,36,Woman
607043,OSSe4,v1,1497,0.9378181774496301,694,1197,674,5-23-2023,15-11-46,1,12,large,bathroom,misscaled,loofah.png,1,zi,bathroom,b5_zi.png,c,1,1376,12,3,loofah.png,b5_zi.png,176711,345560,36,Woman
607043,OSSe4,v1,1497,0.014310552046535557,694,1197,674,5-23-2023,15-11-46,1,13,large,classroom,scaled,clipboard.png,0,zo,laundromat,l1_zo.png,m,1,1134,13,2,clipboard.png,l1_zo.png,176711,345560,36,Woman
607043,OSSe4,v1,1497,-1.218304997561727,694,1197,674,5-23-2023,15-11-46,1,14,small,kitchen,misscaled,saltshaker.png,1,zo,kitchen,k3_zo.png,c,1,811,14,1,saltshaker.png,k3_zo.png,176711,345560,36,Woman
607043,OSSe4,v1,1497,-1.8861307597333863,694,1197,674,5-23-2023,15-11-46,1,15,small,kitchen,misscaled,sponge.png,1,zo,kitchen,k4_zo.png,c,1,636,15,2,sponge.png,k4_zo.png,176711,345560,36,Woman
736171,OSSe4,v1,1300,1.6065026604117192,580,1300,730,5-23-2023,13-9-8,1,0,large,bathroom,misscaled,tissuebox.png,0,zi,classroom,c4_zi.png,c,0,1722,0,3,tissuebox.png,c4_zi.png,137617,255693,60,Man
736171,OSSe4,v1,1300,1.9056280316403165,580,1300,730,5-23-2023,13-9-8,1,1,large,bathroom,scaled,hairdryer.png,0,zo,classroom,c5_zo.png,m,1,1797,1,3,hairdryer.png,c5_zo.png,137617,255693,60,Man
736171,OSSe4,v1,1300,0.3262460715533232,580,1300,730,5-23-2023,13-9-8,1,2,small,bathroom,misscaled,nailclipper.png,0,zo,kitchen,k0_zo.png,m,1,1401,2,1,nailclipper.png,k0_zo.png,137617,255693,60,Man
736171,OSSe4,v1,1300,-0.8862087664932575,580,1300,730,5-23-2023,13-9-8,1,3,large,bathroom,scaled,loofah.png,1,zo,bathroom,b1_zo.png,c,1,1097,3,4,loofah.png,b1_zo.png,137617,255693,60,Man
736171,OSSe4,v1,1300,-0.04466938877013737,580,1300,730,5-23-2023,13-9-8,1,4,large,laundromat,scaled,shirt.png,1,zo,laundromat,l4_zo.png,c,1,1308,4,4,shirt.png,l4_zo.png,137617,255693,60,Man
736171,OSSe4,v1,1300,0.19064256992969245,580,1300,730,5-23-2023,13-9-8,1,5,large,laundromat,misscaled,shorts.png,0,zi,bathroom,b2_zi.png,m,1,1367,5,2,shorts.png,b2_zi.png,137617,255693,60,Man
736171,OSSe4,v1,1300,0.48179126459219374,580,1300,730,5-23-2023,13-9-8,1,6,small,classroom,misscaled,paperclip.png,1,zo,classroom,c3_zo.png,c,1,1440,6,1,paperclip.png,c3_zo.png,137617,255693,60,Man
736171,OSSe4,v1,1300,-0.9300804876067851,580,1300,730,5-23-2023,13-9-8,1,7,small,bathroom,scaled,lipstick.png,0,zi,laundromat,l2_zi.png,m,1,1086,7,1,lipstick.png,l2_zi.png,137617,255693,60,Man
736171,OSSe4,v1,1300,0.23052595276017207,580,1300,730,5-23-2023,13-9-8,1,8,large,classroom,misscaled,computer.png,1,zi,classroom,c3_zi.png,c,1,1377,8,1,computer.png,c3_zi.png,137617,255693,60,Man
736171,OSSe4,v1,1300,-0.834360368813634,580,1300,730,5-23-2023,13-9-8,1,9,small,kitchen,misscaled,spoon.png,0,zo,laundromat,l1_zo.png,m,1,1110,9,1,spoon.png,l1_zo.png,137617,255693,60,Man
736171,OSSe4,v1,1300,1.2754705829187383,580,1300,730,5-23-2023,13-9-8,1,11,small,bathroom,scaled,floss.png,0,zi,laundromat,l1_zi.png,m,1,1639,11,1,floss.png,l1_zi.png,137617,255693,60,Man
736171,OSSe4,v1,1300,-0.9181154727576413,580,1300,730,5-23-2023,13-9-8,1,12,small,kitchen,misscaled,saltshaker.png,1,zo,kitchen,k4_zo.png,c,1,1089,12,1,saltshaker.png,k4_zo.png,137617,255693,60,Man
736171,OSSe4,v1,1300,-0.1603311989785283,580,1300,730,5-23-2023,13-9-8,1,13,small,kitchen,scaled,sponge.png,1,zi,kitchen,k2_zi.png,c,1,1279,13,4,sponge.png,k2_zi.png,137617,255693,60,Man
736171,OSSe4,v1,1300,-1.1175323869100393,580,1300,730,5-23-2023,13-9-8,1,14,large,kitchen,scaled,pot.png,0,zo,bathroom,b5_zo.png,m,1,1039,14,4,pot.png,b5_zo.png,137617,255693,60,Man
736171,OSSe4,v1,1300,-1.1255090634761353,580,1300,730,5-23-2023,13-9-8,1,15,large,kitchen,misscaled,kettle.png,1,zi,kitchen,k5_zi.png,c,1,1037,15,2,kettle.png,k5_zi.png,137617,255693,60,Man
527114,OSSe4,v1,1846,2.451006231287435,980,1920,1080,5-23-2023,14-1-6,2,0,large,kitchen,scaled,kettle.png,0,zo,laundromat,l1_zo.png,m,1,1829,0,2,kettle.png,l1_zo.png,152806,343100,55,Man
527114,OSSe4,v1,1846,0.6009516653741197,980,1920,1080,5-23-2023,14-1-6,2,1,small,bathroom,scaled,nailclipper.png,1,zi,bathroom,b2_zi.png,c,1,1390,1,4,nailclipper.png,b2_zi.png,152806,343100,55,Man
527114,OSSe4,v1,1846,-0.5621805901886934,980,1920,1080,5-23-2023,14-1-6,2,2,large,classroom,scaled,computer.png,0,zo,laundromat,l3_zo.png,m,1,1114,2,2,computer.png,l3_zo.png,152806,343100,55,Man
527114,OSSe4,v1,1846,-0.5200381171610552,980,1920,1080,5-23-2023,14-1-6,2,3,small,kitchen,misscaled,spoon.png,1,zo,kitchen,k0_zo.png,c,1,1124,3,3,spoon.png,k0_zo.png,152806,343100,55,Man
527114,OSSe4,v1,1846,0.183741182400502,980,1920,1080,5-23-2023,14-1-6,2,4,small,bathroom,misscaled,floss.png,0,zo,kitchen,k4_zo.png,m,1,1291,4,2,floss.png,k4_zo.png,152806,343100,55,Man
527114,OSSe4,v1,1846,-1.2280316640253763,980,1920,1080,5-23-2023,14-1-6,2,5,large,bathroom,misscaled,tissuebox.png,1,zi,bathroom,b5_zi.png,c,1,956,5,2,tissuebox.png,b5_zi.png,152806,343100,55,Man
527114,OSSe4,v1,1846,-0.869820643290452,980,1920,1080,5-23-2023,14-1-6,2,6,large,classroom,scaled,notebook.png,1,zo,classroom,c2_zo.png,c,1,1041,6,2,notebook.png,c2_zo.png,152806,343100,55,Man
527114,OSSe4,v1,1846,0.08259924713417041,980,1920,1080,5-23-2023,14-1-6,2,7,small,kitchen,scaled,sponge.png,0,zi,classroom,c3_zi.png,c,0,1267,7,4,sponge.png,c3_zi.png,152806,343100,55,Man
527114,OSSe4,v1,1846,-0.3851822034726131,980,1920,1080,5-23-2023,14-1-6,2,8,large,bathroom,misscaled,loofah.png,0,zi,classroom,c0_zi.png,m,1,1156,8,4,loofah.png,c0_zi.png,152806,343100,55,Man
527114,OSSe4,v1,1846,1.4100871475047723,980,1920,1080,5-23-2023,14-1-6,2,9,large,laundromat,misscaled,shirt.png,0,zi,bathroom,b1_zi.png,c,0,1582,9,1,shirt.png,b1_zi.png,152806,343100,55,Man
527114,OSSe4,v1,1846,-1.1690322017866828,980,1920,1080,5-23-2023,14-1-6,2,10,small,kitchen,misscaled,saltshaker.png,0,zo,bathroom,b5_zo.png,c,0,970,10,1,saltshaker.png,b5_zo.png,152806,343100,55,Man
527114,OSSe4,v1,1846,-0.6970365038771356,980,1920,1080,5-23-2023,14-1-6,2,11,large,kitchen,scaled,toaster.png,1,zo,kitchen,k3_zo.png,c,1,1082,11,3,toaster.png,k3_zo.png,152806,343100,55,Man
527114,OSSe4,v1,1846,0.5124524720160796,980,1920,1080,5-23-2023,14-1-6,2,12,large,laundromat,misscaled,shorts.png,1,zi,laundromat,l1_zi.png,c,1,1369,12,2,shorts.png,l1_zi.png,152806,343100,55,Man
527114,OSSe4,v1,1846,-0.38939645077537693,980,1920,1080,5-23-2023,14-1-6,2,14,small,laundromat,misscaled,socks.png,1,zo,laundromat,l4_zo.png,m,0,1155,14,1,socks.png,l4_zo.png,152806,343100,55,Man
527114,OSSe4,v1,1846,0.5798804288603007,980,1920,1080,5-23-2023,14-1-6,2,15,small,laundromat,scaled,coins.png,1,zi,laundromat,l4_zi.png,c,1,1385,15,3,coins.png,l4_zi.png,152806,343100,55,Man
512130,OSSe4,v1,1920,1.732182141470625,1080,1920,1080,5-23-2023,10-52-55,1,0,small,laundromat,scaled,coins.png,0,zi,kitchen,k2_zi.png,m,1,1888,0,1,coins.png,k2_zi.png,154829,235294,59,Man
512130,OSSe4,v1,1920,0.1209153118234365,1080,1920,1080,5-23-2023,10-52-55,1,1,large,classroom,scaled,computer.png,0,zo,laundromat,l4_zo.png,m,1,1315,1,1,computer.png,l4_zo.png,154829,235294,59,Man
512130,OSSe4,v1,1920,0.036555791946620335,1080,1920,1080,5-23-2023,10-52-55,1,2,small,bathroom,scaled,nailclipper.png,1,zi,bathroom,b5_zi.png,c,1,1285,2,3,nailclipper.png,b5_zi.png,154829,235294,59,Man
512130,OSSe4,v1,1920,-1.0488700304684142,1080,1920,1080,5-23-2023,10-52-55,1,3,large,bathroom,misscaled,tissuebox.png,1,zi,bathroom,b1_zi.png,c,1,899,3,1,tissuebox.png,b1_zi.png,154829,235294,59,Man
512130,OSSe4,v1,1920,-0.5427129112075173,1080,1920,1080,5-23-2023,10-52-55,1,5,large,kitchen,scaled,toaster.png,0,zo,laundromat,l3_zo.png,m,1,1079,5,3,toaster.png,l3_zo.png,154829,235294,59,Man
512130,OSSe4,v1,1920,-0.7423637749159822,1080,1920,1080,5-23-2023,10-52-55,1,6,small,kitchen,misscaled,saltshaker.png,1,zo,kitchen,k0_zo.png,c,1,1008,6,1,saltshaker.png,k0_zo.png,154829,235294,59,Man
512130,OSSe4,v1,1920,-0.31494220754011365,1080,1920,1080,5-23-2023,10-52-55,1,7,small,laundromat,misscaled,tidepod.png,0,zo,bathroom,b1_zo.png,c,0,1160,7,3,tidepod.png,b1_zo.png,154829,235294,59,Man
512130,OSSe4,v1,1920,-0.9532625746080226,1080,1920,1080,5-23-2023,10-52-55,1,8,large,kitchen,scaled,pot.png,1,zo,kitchen,k4_zo.png,c,1,933,8,2,pot.png,k4_zo.png,154829,235294,59,Man
512130,OSSe4,v1,1920,-0.3318141115154769,1080,1920,1080,5-23-2023,10-52-55,1,9,small,laundromat,scaled,socks.png,1,zi,laundromat,l2_zi.png,c,1,1154,9,4,socks.png,l2_zi.png,154829,235294,59,Man
512130,OSSe4,v1,1920,1.8643453892776372,1080,1920,1080,5-23-2023,10-52-55,1,10,small,bathroom,misscaled,floss.png,1,zo,bathroom,b5_zo.png,c,1,1935,10,1,floss.png,b5_zo.png,154829,235294,59,Man
512130,OSSe4,v1,1920,-0.593328623133607,1080,1920,1080,5-23-2023,10-52-55,1,11,large,kitchen,misscaled,kettle.png,0,zi,laundromat,l1_zi.png,m,1,1061,11,2,kettle.png,l1_zi.png,154829,235294,59,Man
512130,OSSe4,v1,1920,0.9195187666572961,1080,1920,1080,5-23-2023,10-52-55,1,12,small,bathroom,misscaled,lipstick.png,0,zo,classroom,c3_zo.png,m,1,1599,12,1,lipstick.png,c3_zo.png,154829,235294,59,Man
512130,OSSe4,v1,1920,0.9841943985628552,1080,1920,1080,5-23-2023,10-52-55,1,13,small,kitchen,scaled,spoon.png,0,zi,classroom,c3_zi.png,c,0,1622,13,3,spoon.png,c3_zi.png,154829,235294,59,Man
512130,OSSe4,v1,1920,-1.1304175663493365,1080,1920,1080,5-23-2023,10-52-55,1,14,large,bathroom,misscaled,hairdryer.png,1,zi,bathroom,b2_zi.png,c,1,870,14,1,hairdryer.png,b2_zi.png,154829,235294,59,Man
368976,OSSe4,v1,1920,0.6347925614177787,929,1920,1080,5-19-2023,8-4-35,1,0,large,kitchen,scaled,toaster.png,0,zo,bathroom,b4_zo.png,m,1,1174,0,3,toaster.png,b4_zo.png,201520,326802,47,Man
368976,OSSe4,v1,1920,1.5531511412892478,929,1920,1080,5-19-2023,8-4-35,1,1,small,classroom,misscaled,eraser.png,1,zo,classroom,c2_zo.png,c,1,1325,1,1,eraser.png,c2_zo.png,201520,326802,47,Man
368976,OSSe4,v1,1920,1.7720975576824458,929,1920,1080,5-19-2023,8-4-35,1,2,small,kitchen,scaled,sponge.png,1,zi,kitchen,k2_zi.png,c,1,1361,2,4,sponge.png,k2_zi.png,201520,326802,47,Man
368976,OSSe4,v1,1920,0.37935507562571447,929,1920,1080,5-19-2023,8-4-35,1,3,large,laundromat,scaled,shirt.png,1,zo,laundromat,l3_zo.png,c,1,1132,3,3,shirt.png,l3_zo.png,201520,326802,47,Man
368976,OSSe4,v1,1920,-0.4964305899470772,929,1920,1080,5-19-2023,8-4-35,1,4,small,classroom,scaled,binderclip.png,0,zi,bathroom,b5_zi.png,m,1,988,4,2,binderclip.png,b5_zi.png,201520,326802,47,Man
368976,OSSe4,v1,1920,0.06918098573535074,929,1920,1080,5-19-2023,8-4-35,1,5,small,laundromat,scaled,tidepod.png,1,zi,laundromat,l4_zi.png,c,1,1081,5,4,tidepod.png,l4_zi.png,201520,326802,47,Man
368976,OSSe4,v1,1920,-0.6728040920415979,929,1920,1080,5-19-2023,8-4-35,1,6,large,kitchen,misscaled,kettle.png,0,zi,classroom,c3_zi.png,m,1,959,6,1,kettle.png,c3_zi.png,201520,326802,47,Man
368976,OSSe4,v1,1920,-1.0194692513308279,929,1920,1080,5-19-2023,8-4-35,1,7,large,kitchen,misscaled,pot.png,1,zi,kitchen,k5_zi.png,c,1,902,7,1,pot.png,k5_zi.png,201520,326802,47,Man
368976,OSSe4,v1,1920,-0.24707494905482405,929,1920,1080,5-19-2023,8-4-35,1,8,large,classroom,misscaled,clipboard.png,0,zi,bathroom,b2_zi.png,m,1,1029,8,3,clipboard.png,b2_zi.png,201520,326802,47,Man
368976,OSSe4,v1,1920,-1.0985332350283716,929,1920,1080,5-19-2023,8-4-35,1,9,large,laundromat,scaled,detergent.png,1,zo,laundromat,l4_zo.png,c,1,889,9,3,detergent.png,l4_zo.png,201520,326802,47,Man
368976,OSSe4,v1,1920,-0.4599395205482109,929,1920,1080,5-19-2023,8-4-35,1,10,large,classroom,scaled,notebook.png,0,zo,laundromat,l1_zo.png,m,1,994,10,3,notebook.png,l1_zo.png,201520,326802,47,Man
368976,OSSe4,v1,1920,-0.356548157251423,929,1920,1080,5-19-2023,8-4-35,1,11,small,bathroom,scaled,nailclipper.png,0,zi,kitchen,k1_zi.png,m,1,1011,11,3,nailclipper.png,k1_zi.png,201520,326802,47,Man
368976,OSSe4,v1,1920,-0.8491775941361184,929,1920,1080,5-19-2023,8-4-35,1,12,small,kitchen,misscaled,saltshaker.png,1,zo,kitchen,k0_zo.png,c,1,930,12,3,saltshaker.png,k0_zo.png,201520,326802,47,Man
368976,OSSe4,v1,1920,-0.5146761246465105,929,1920,1080,5-19-2023,8-4-35,1,13,small,bathroom,misscaled,lipstick.png,0,zo,classroom,c5_zo.png,m,1,985,13,3,lipstick.png,c5_zo.png,201520,326802,47,Man
368976,OSSe4,v1,1920,2.015371353674888,929,1920,1080,5-19-2023,8-4-35,1,14,large,bathroom,misscaled,hairdryer.png,1,zi,bathroom,b1_zi.png,c,1,1401,14,1,hairdryer.png,b1_zi.png,201520,326802,47,Man
368976,OSSe4,v1,1920,-0.7092951614404641,929,1920,1080,5-19-2023,8-4-35,1,15,small,laundromat,misscaled,socks.png,0,zo,classroom,c3_zo.png,m,1,953,15,3,socks.png,c3_zo.png,201520,326802,47,Man
200176,OSSe4,v1,1536,-0.07665669266330466,743,1920,1080,5-23-2023,15-10-44,3,1,large,kitchen,scaled,kettle.png,0,zo,laundromat,l1_zo.png,m,1,1103,1,1,kettle.png,l1_zo.png,222134,462732,48,Man
200176,OSSe4,v1,1536,-0.5917480438171838,743,1920,1080,5-23-2023,15-10-44,3,2,small,laundromat,scaled,socks.png,1,zi,laundromat,l1_zi.png,c,1,905,2,4,socks.png,l1_zi.png,222134,462732,48,Man
200176,OSSe4,v1,1536,-0.9533525782130888,743,1920,1080,5-23-2023,15-10-44,3,3,small,kitchen,misscaled,spoon.png,0,zo,bathroom,b1_zo.png,m,1,766,3,1,spoon.png,b1_zo.png,222134,462732,48,Man
200176,OSSe4,v1,1536,-1.1770791246738648,743,1920,1080,5-23-2023,15-10-44,3,4,large,kitchen,scaled,pot.png,0,zo,bathroom,b5_zo.png,m,1,680,4,3,pot.png,b5_zo.png,222134,462732,48,Man
200176,OSSe4,v1,1536,0.8988951087644967,743,1920,1080,5-23-2023,15-10-44,3,5,large,laundromat,misscaled,shirt.png,0,zi,classroom,c4_zi.png,m,1,1478,5,1,shirt.png,c4_zi.png,222134,462732,48,Man
200176,OSSe4,v1,1536,-0.6723936594018821,743,1920,1080,5-23-2023,15-10-44,3,6,large,laundromat,misscaled,detergent.png,1,zi,laundromat,l4_zi.png,c,1,874,6,3,detergent.png,l4_zi.png,222134,462732,48,Man
200176,OSSe4,v1,1536,-1.0600129085025285,743,1920,1080,5-23-2023,15-10-44,3,7,large,classroom,scaled,clipboard.png,1,zo,classroom,c3_zo.png,m,0,725,7,3,clipboard.png,c3_zo.png,222134,462732,48,Man
200176,OSSe4,v1,1536,1.9498895828360483,743,1920,1080,5-23-2023,15-10-44,3,8,small,classroom,misscaled,binderclip.png,1,zo,classroom,c5_zo.png,c,1,1882,8,1,binderclip.png,c5_zo.png,222134,462732,48,Man
200176,OSSe4,v1,1536,2.152804357533031,743,1920,1080,5-23-2023,15-10-44,3,9,small,kitchen,scaled,sponge.png,1,zi,kitchen,k5_zi.png,c,1,1960,9,4,sponge.png,k5_zi.png,222134,462732,48,Man
200176,OSSe4,v1,1536,0.2563316555573849,743,1920,1080,5-23-2023,15-10-44,3,10,small,classroom,scaled,paperclip.png,0,zi,bathroom,b1_zi.png,m,1,1231,10,1,paperclip.png,b1_zi.png,222134,462732,48,Man
200176,OSSe4,v1,1536,0.1314610249746263,743,1920,1080,5-23-2023,15-10-44,3,11,small,laundromat,scaled,tidepod.png,0,zi,classroom,c3_zi.png,m,1,1183,11,3,tidepod.png,c3_zi.png,222134,462732,48,Man
200176,OSSe4,v1,1536,0.07683012409466944,743,1920,1080,5-23-2023,15-10-44,3,12,small,bathroom,misscaled,lipstick.png,0,zo,kitchen,k3_zo.png,m,1,1162,12,1,lipstick.png,k3_zo.png,222134,462732,48,Man
200176,OSSe4,v1,1536,-0.2847744103012356,743,1920,1080,5-23-2023,15-10-44,3,13,large,classroom,scaled,notebook.png,1,zo,classroom,c2_zo.png,c,1,1023,13,3,notebook.png,c2_zo.png,222134,462732,48,Man
200176,OSSe4,v1,1536,-0.05324344942903742,743,1920,1080,5-23-2023,15-10-44,3,14,large,bathroom,misscaled,loofah.png,0,zi,classroom,c0_zi.png,m,1,1112,14,4,loofah.png,c0_zi.png,222134,462732,48,Man
200176,OSSe4,v1,1536,-0.5969509867581321,743,1920,1080,5-23-2023,15-10-44,3,15,large,laundromat,misscaled,shorts.png,1,zi,laundromat,l2_zi.png,c,1,903,15,1,shorts.png,l2_zi.png,222134,462732,48,Man
255328,OSSe4,v1,1920,1.5347116528026028,937,1920,1080,5-19-2023,10-27-5,1,2,small,bathroom,scaled,lipstick.png,1,zi,bathroom,b1_zi.png,c,1,1853,2,1,lipstick.png,b1_zi.png,126359,314539,35,Man
255328,OSSe4,v1,1920,0.5423782861727104,937,1920,1080,5-19-2023,10-27-5,1,3,large,kitchen,scaled,toaster.png,0,zo,laundromat,l1_zo.png,m,1,1615,3,1,toaster.png,l1_zo.png,126359,314539,35,Man
255328,OSSe4,v1,1920,0.0003474556605843802,937,1920,1080,5-19-2023,10-27-5,1,4,large,classroom,scaled,notebook.png,1,zo,classroom,c5_zo.png,c,1,1485,4,1,notebook.png,c5_zo.png,126359,314539,35,Man
255328,OSSe4,v1,1920,-0.9627996354801935,937,1920,1080,5-19-2023,10-27-5,1,5,large,classroom,misscaled,clipboard.png,1,zi,classroom,c0_zi.png,c,1,1254,5,1,clipboard.png,c0_zi.png,126359,314539,35,Man
255328,OSSe4,v1,1920,-0.39158252947895295,937,1920,1080,5-19-2023,10-27-5,1,6,large,kitchen,misscaled,pot.png,0,zi,laundromat,l4_zi.png,m,1,1391,6,1,pot.png,l4_zi.png,126359,314539,35,Man
255328,OSSe4,v1,1920,-1.0211721864584224,937,1920,1080,5-19-2023,10-27-5,1,7,large,bathroom,misscaled,loofah.png,1,zi,bathroom,b2_zi.png,c,1,1240,7,1,loofah.png,b2_zi.png,126359,314539,35,Man
255328,OSSe4,v1,1920,-1.3297128130576328,937,1920,1080,5-19-2023,10-27-5,1,8,large,laundromat,scaled,shirt.png,0,zo,bathroom,b5_zo.png,c,0,1166,8,1,shirt.png,b5_zo.png,126359,314539,35,Man
255328,OSSe4,v1,1920,-0.6667674126620323,937,1920,1080,5-19-2023,10-27-5,1,10,small,kitchen,scaled,saltshaker.png,0,zi,bathroom,b5_zi.png,m,1,1325,10,1,saltshaker.png,b5_zi.png,126359,314539,35,Man
255328,OSSe4,v1,1920,-0.12890605007692263,937,1920,1080,5-19-2023,10-27-5,1,11,large,classroom,scaled,computer.png,1,zo,classroom,c3_zo.png,c,1,1454,11,1,computer.png,c3_zo.png,126359,314539,35,Man
255328,OSSe4,v1,1920,1.372102403648965,937,1920,1080,5-19-2023,10-27-5,1,13,small,kitchen,scaled,spoon.png,1,zi,kitchen,k1_zi.png,c,1,1814,13,1,spoon.png,k1_zi.png,126359,314539,35,Man
255328,OSSe4,v1,1920,-0.3582267860628221,937,1920,1080,5-19-2023,10-27-5,1,14,small,classroom,scaled,eraser.png,0,zi,kitchen,k2_zi.png,m,1,1399,14,1,eraser.png,k2_zi.png,126359,314539,35,Man
255328,OSSe4,v1,1920,1.4096276149921123,937,1920,1080,5-19-2023,10-27-5,1,15,small,classroom,misscaled,binderclip.png,0,zo,laundromat,l3_zo.png,m,1,1823,15,1,binderclip.png,l3_zo.png,126359,314539,35,Man
701836,OSSe4,v1,1638,1.8607910412269852,921,1920,1080,5-19-2023,10-32-34,1,0,small,classroom,scaled,binderclip.png,0,zi,bathroom,b5_zi.png,m,1,1273,0,1,binderclip.png,b5_zi.png,133665,219716,33,Man
701836,OSSe4,v1,1638,-0.42941331720622733,921,1920,1080,5-19-2023,10-32-34,1,1,large,kitchen,misscaled,kettle.png,0,zi,bathroom,b2_zi.png,m,1,887,1,1,kettle.png,b2_zi.png,133665,219716,33,Man
701836,OSSe4,v1,1638,-0.8625348668581043,921,1920,1080,5-19-2023,10-32-34,1,2,small,bathroom,misscaled,floss.png,0,zo,classroom,c2_zo.png,m,1,814,2,1,floss.png,c2_zo.png,133665,219716,33,Man
701836,OSSe4,v1,1638,0.5910922518365513,921,1920,1080,5-19-2023,10-32-34,1,3,small,classroom,misscaled,paperclip.png,0,zo,kitchen,k3_zo.png,m,1,1059,3,1,paperclip.png,k3_zo.png,133665,219716,33,Man
701836,OSSe4,v1,1638,0.12830484261947725,921,1920,1080,5-19-2023,10-32-34,1,4,small,laundromat,scaled,coins.png,1,zi,laundromat,l2_zi.png,c,1,981,4,1,coins.png,l2_zi.png,133665,219716,33,Man
701836,OSSe4,v1,1638,-0.3582152542497544,921,1920,1080,5-19-2023,10-32-34,1,5,large,kitchen,scaled,toaster.png,0,zo,classroom,c3_zo.png,m,1,899,5,1,toaster.png,c3_zo.png,133665,219716,33,Man
701836,OSSe4,v1,1638,-0.4472128329453456,921,1920,1080,5-19-2023,10-32-34,1,6,large,laundromat,scaled,detergent.png,1,zo,laundromat,l3_zo.png,c,1,884,6,1,detergent.png,l3_zo.png,133665,219716,33,Man
701836,OSSe4,v1,1638,-0.7913368039016314,921,1920,1080,5-19-2023,10-32-34,1,7,large,bathroom,misscaled,hairdryer.png,0,zi,kitchen,k1_zi.png,m,1,826,7,1,hairdryer.png,k1_zi.png,133665,219716,33,Man
701836,OSSe4,v1,1638,-0.38194794190191206,921,1920,1080,5-19-2023,10-32-34,1,8,large,bathroom,misscaled,tissuebox.png,1,zi,bathroom,b1_zi.png,c,1,895,8,1,tissuebox.png,b1_zi.png,133665,219716,33,Man
701836,OSSe4,v1,1638,0.6504239709669454,921,1920,1080,5-19-2023,10-32-34,1,9,large,kitchen,scaled,pot.png,0,zo,laundromat,l1_zo.png,m,1,1069,9,1,pot.png,l1_zo.png,133665,219716,33,Man
701836,OSSe4,v1,1638,1.1013450363579407,921,1920,1080,5-19-2023,10-32-34,1,10,small,bathroom,scaled,nailclipper.png,0,zi,laundromat,l4_zi.png,m,1,1145,10,1,nailclipper.png,l4_zi.png,133665,219716,33,Man
701836,OSSe4,v1,1638,-0.6192748184234885,921,1920,1080,5-19-2023,10-32-34,1,11,large,bathroom,scaled,loofah.png,1,zo,bathroom,b4_zo.png,c,1,855,11,1,loofah.png,b4_zo.png,133665,219716,33,Man
701836,OSSe4,v1,1638,1.3030728814012806,921,1920,1080,5-19-2023,10-32-34,1,12,small,kitchen,scaled,spoon.png,1,zi,kitchen,k5_zi.png,c,1,1179,12,1,spoon.png,k5_zi.png,133665,219716,33,Man
701836,OSSe4,v1,1638,-1.3668544794664543,921,1920,1080,5-19-2023,10-32-34,1,13,small,kitchen,misscaled,sponge.png,1,zo,kitchen,k0_zo.png,c,1,729,13,1,sponge.png,k0_zo.png,133665,219716,33,Man
701836,OSSe4,v1,1638,1.1310108959231377,921,1920,1080,5-19-2023,10-32-34,1,14,small,classroom,misscaled,eraser.png,1,zo,classroom,c5_zo.png,c,1,1150,14,1,eraser.png,c5_zo.png,133665,219716,33,Man
701836,OSSe4,v1,1638,-1.5092506053794001,921,1920,1080,5-19-2023,10-32-34,1,15,large,laundromat,misscaled,shirt.png,1,zi,laundromat,l1_zi.png,c,1,705,15,1,shirt.png,l1_zi.png,133665,219716,33,Man
482232,OSSe4,v1,1278,0.3009474064860964,1329,2560,1440,5-23-2023,14-9-39,1,0,large,bathroom,misscaled,hairdryer.png,1,zi,bathroom,b1_zi.png,m,0,954,0,1,hairdryer.png,b1_zi.png,108650,171227,39,Man
482232,OSSe4,v1,1278,-0.20742590168165212,1329,2560,1440,5-23-2023,14-9-39,1,1,large,bathroom,scaled,loofah.png,1,zo,bathroom,b5_zo.png,m,0,901,1,2,loofah.png,b5_zo.png,108650,171227,39,Man
482232,OSSe4,v1,1278,1.6725961436179462,1329,2560,1440,5-23-2023,14-9-39,1,2,small,bathroom,scaled,lipstick.png,0,zi,kitchen,k5_zi.png,m,1,1097,2,4,lipstick.png,k5_zi.png,108650,171227,39,Man
482232,OSSe4,v1,1278,1.5670847023001118,1329,2560,1440,5-23-2023,14-9-39,1,3,small,classroom,scaled,paperclip.png,0,zi,bathroom,b5_zi.png,m,1,1086,3,1,paperclip.png,b5_zi.png,108650,171227,39,Man
482232,OSSe4,v1,1278,-0.5143682764244437,1329,2560,1440,5-23-2023,14-9-39,1,4,large,classroom,scaled,clipboard.png,0,zo,kitchen,k4_zo.png,c,0,869,4,4,clipboard.png,k4_zo.png,108650,171227,39,Man
482232,OSSe4,v1,1278,0.2913554572753842,1329,2560,1440,5-23-2023,14-9-39,1,5,large,kitchen,scaled,pot.png,1,zo,kitchen,k0_zo.png,c,1,953,5,4,pot.png,k0_zo.png,108650,171227,39,Man
482232,OSSe4,v1,1278,-0.39926488589589687,1329,2560,1440,5-23-2023,14-9-39,1,6,small,bathroom,scaled,nailclipper.png,1,zi,bathroom,b2_zi.png,m,0,881,6,4,nailclipper.png,b2_zi.png,108650,171227,39,Man
482232,OSSe4,v1,1278,-0.3704890382637601,1329,2560,1440,5-23-2023,14-9-39,1,7,large,kitchen,misscaled,kettle.png,0,zi,laundromat,l1_zi.png,m,1,884,7,2,kettle.png,l1_zi.png,108650,171227,39,Man
482232,OSSe4,v1,1278,0.28176350806467193,1329,2560,1440,5-23-2023,14-9-39,1,8,small,laundromat,misscaled,coins.png,0,zo,classroom,c3_zo.png,m,1,952,8,1,coins.png,c3_zo.png,108650,171227,39,Man
482232,OSSe4,v1,1278,0.9531999528145285,1329,2560,1440,5-23-2023,14-9-39,1,9,small,bathroom,misscaled,floss.png,1,zo,bathroom,b4_zo.png,c,1,1022,9,1,floss.png,b4_zo.png,108650,171227,39,Man
482232,OSSe4,v1,1278,-1.991528454874128,1329,2560,1440,5-23-2023,14-9-39,1,10,large,kitchen,misscaled,toaster.png,1,zi,kitchen,k1_zi.png,c,1,715,10,3,toaster.png,k1_zi.png,108650,171227,39,Man
482232,OSSe4,v1,1278,1.1066711401859244,1329,2560,1440,5-23-2023,14-9-39,1,11,large,bathroom,scaled,tissuebox.png,0,zo,classroom,c2_zo.png,m,1,1038,11,1,tissuebox.png,c2_zo.png,108650,171227,39,Man
482232,OSSe4,v1,1278,-0.5815119208994294,1329,2560,1440,5-23-2023,14-9-39,1,12,small,classroom,misscaled,eraser.png,1,zo,classroom,c5_zo.png,c,1,862,12,1,eraser.png,c5_zo.png,108650,171227,39,Man
482232,OSSe4,v1,1278,-1.3968276038099694,1329,2560,1440,5-23-2023,14-9-39,1,13,large,laundromat,misscaled,detergent.png,0,zi,classroom,c4_zi.png,m,1,777,13,1,detergent.png,c4_zi.png,108650,171227,39,Man
482232,OSSe4,v1,1278,-0.005994968256695148,1329,2560,1440,5-23-2023,14-9-39,1,14,small,laundromat,misscaled,socks.png,0,zo,kitchen,k3_zo.png,m,1,922,14,1,socks.png,k3_zo.png,108650,171227,39,Man
482232,OSSe4,v1,1278,-0.7062072606386884,1329,2560,1440,5-23-2023,14-9-39,1,15,small,classroom,scaled,binderclip.png,1,zi,classroom,c0_zi.png,c,1,849,15,1,binderclip.png,c0_zi.png,108650,171227,39,Man
316896,OSSe4,v1,1536,1.5916462983830686,778,1536,864,5-19-2023,11-15-22,2,0,small,laundromat,scaled,coins.png,1,zi,laundromat,l4_zi.png,c,1,1623,0,1,coins.png,l4_zi.png,127812,220705,38,Man
316896,OSSe4,v1,1536,-0.8920530593729925,778,1536,864,5-19-2023,11-15-22,2,1,small,kitchen,misscaled,saltshaker.png,1,zo,kitchen,k4_zo.png,c,1,1161,1,1,saltshaker.png,k4_zo.png,127812,220705,38,Man
316896,OSSe4,v1,1536,-0.972692648910527,778,1536,864,5-19-2023,11-15-22,2,2,small,laundromat,scaled,socks.png,1,zi,laundromat,l1_zi.png,c,1,1146,2,4,socks.png,l1_zi.png,127812,220705,38,Man
316896,OSSe4,v1,1536,1.8550689575390145,778,1536,864,5-19-2023,11-15-22,2,3,small,laundromat,scaled,tidepod.png,0,zi,bathroom,b1_zi.png,c,0,1672,3,2,tidepod.png,b1_zi.png,127812,220705,38,Man
316896,OSSe4,v1,1536,-0.37595968633277205,778,1536,864,5-19-2023,11-15-22,2,4,large,classroom,misscaled,notebook.png,0,zi,bathroom,b2_zi.png,m,1,1257,4,2,notebook.png,b2_zi.png,127812,220705,38,Man
316896,OSSe4,v1,1536,-0.5963745644020328,778,1536,864,5-19-2023,11-15-22,2,5,small,bathroom,scaled,lipstick.png,0,zi,kitchen,k5_zi.png,m,1,1216,5,3,lipstick.png,k5_zi.png,127812,220705,38,Man
316896,OSSe4,v1,1536,-0.46735122114197775,778,1536,864,5-19-2023,11-15-22,2,6,large,classroom,scaled,computer.png,1,zo,classroom,c5_zo.png,c,1,1240,6,4,computer.png,c5_zo.png,127812,220705,38,Man
316896,OSSe4,v1,1536,-0.02114549236762047,778,1536,864,5-19-2023,11-15-22,2,7,small,kitchen,misscaled,sponge.png,0,zo,classroom,c3_zo.png,m,1,1323,7,2,sponge.png,c3_zo.png,127812,220705,38,Man
316896,OSSe4,v1,1536,1.5217586541172055,778,1536,864,5-19-2023,11-15-22,2,8,large,kitchen,scaled,toaster.png,1,zo,kitchen,k3_zo.png,c,1,1610,8,1,toaster.png,k3_zo.png,127812,220705,38,Man
316896,OSSe4,v1,1536,-0.02114549236762047,778,1536,864,5-19-2023,11-15-22,2,9,small,bathroom,misscaled,nailclipper.png,1,zo,bathroom,b5_zo.png,c,1,1323,9,1,nailclipper.png,b5_zo.png,127812,220705,38,Man
316896,OSSe4,v1,1536,0.3014128657825173,778,1536,864,5-19-2023,11-15-22,2,10,large,laundromat,misscaled,detergent.png,1,zi,laundromat,l2_zi.png,c,1,1383,10,3,detergent.png,l2_zi.png,127812,220705,38,Man
316896,OSSe4,v1,1536,-1.0802121016272397,778,1536,864,5-19-2023,11-15-22,2,11,large,bathroom,scaled,loofah.png,0,zo,classroom,c2_zo.png,m,1,1126,11,2,loofah.png,c2_zo.png,127812,220705,38,Man
