subjID,experimentName,versionName,sequenceName,Z-Scored RT,windowWidth,windowHeight,screenWidth,screenHeight,startDate,startTime,pracTries,trialNum,scene,image_name,object,side,objectCategory,objSceneSemCong,scale,image,presentationSize,keyPress,accuracy,RT,ratingTrialNum,rating,thisRatingTrialFile,experimentTime,totalTime,age,gender
135584,OSSe5,v2,jsons/s2.json,-0.4895168904493835,1366,768,1366,768,6-20-2023,10-44-50,1,0,c3,c3_large_clipboard,clipboard,L,classroom,1,scaled,c3_large_clipboard_L.png,large,c,1,877,0,5,c3_large_clipboard_L.png,189045,250197,30,Man
135584,OSSe5,v2,jsons/s2.json,0.1565172621560727,1366,768,1366,768,6-20-2023,10-44-50,1,1,k7,k7_small_laptop,laptop,L,classroom,0,misscaled,k7_small_laptop_L.png,small,m,0,1368,1,4,k7_small_laptop_L.png,189045,250197,30,Man
135584,OSSe5,v2,jsons/s2.json,-0.35531020294275106,1366,768,1366,768,6-20-2023,10-44-50,1,3,k11,k11_small_sponge,sponge,R,kitchen,1,scaled,k11_small_sponge_R.png,small,m,1,979,3,5,k11_small_sponge_R.png,189045,250197,30,Man
135584,OSSe5,v2,jsons/s2.json,-0.6105660595730128,1366,768,1366,768,6-20-2023,10-44-50,1,4,k0,k0_large_spoon,spoon,R,kitchen,1,misscaled,k0_large_spoon_R.png,large,m,1,785,4,7,k0_large_spoon_R.png,189045,250197,30,Man
135584,OSSe5,v2,jsons/s2.json,0.29730270885420673,1366,768,1366,768,6-20-2023,10-44-50,1,5,c6,c6_large_kettle,kettle,L,kitchen,0,scaled,c6_large_kettle_L.png,large,c,1,1475,5,5,c6_large_kettle_L.png,189045,250197,30,Man
135584,OSSe5,v2,jsons/s2.json,-0.26189182242342846,1366,768,1366,768,6-20-2023,10-44-50,1,6,k8,k8_small_notebook,notebook,L,classroom,0,misscaled,k8_small_notebook_L.png,small,c,1,1050,6,4,k8_small_notebook_L.png,189045,250197,30,Man
135584,OSSe5,v2,jsons/s2.json,-0.46188610184507684,1366,768,1366,768,6-20-2023,10-44-50,1,7,k9,k9_small_pot,pot,L,kitchen,1,misscaled,k9_small_pot_L.png,small,c,1,898,7,5,k9_small_pot_L.png,189045,250197,30,Man
135584,OSSe5,v2,jsons/s2.json,0.2867766941478042,1366,768,1366,768,6-20-2023,10-44-50,1,8,k5,k5_small_flashdrive,flashdrive,L,classroom,0,scaled,k5_small_flashdrive_L.png,small,c,1,1467,8,6,k5_small_flashdrive_L.png,189045,250197,30,Man
135584,OSSe5,v2,jsons/s2.json,-0.4526758389769746,1366,768,1366,768,6-20-2023,10-44-50,1,9,c11,c11_large_sponge,sponge,L,kitchen,0,misscaled,c11_large_sponge_L.png,large,c,1,905,9,5,c11_large_sponge_L.png,189045,250197,30,Man
135584,OSSe5,v2,jsons/s2.json,-0.034266754397473426,1366,768,1366,768,6-20-2023,10-44-50,1,10,c0,c0_small_spoon,spoon,R,kitchen,0,scaled,c0_small_spoon_R.png,small,m,1,1223,10,4,c0_small_spoon_R.png,189045,250197,30,Man
135584,OSSe5,v2,jsons/s2.json,0.04467835590054566,1366,768,1366,768,6-20-2023,10-44-50,1,11,c5,c5_large_flashdrive,flashdrive,R,classroom,1,misscaled,c5_large_flashdrive_R.png,large,m,1,1283,11,7,c5_large_flashdrive_R.png,189045,250197,30,Man
135584,OSSe5,v2,jsons/s2.json,1.5604244736225121,1366,768,1366,768,6-20-2023,10-44-50,1,12,k2,k2_small_binderclip,binderclip,R,classroom,0,scaled,k2_small_binderclip_R.png,small,m,1,2435,12,5,k2_small_binderclip_R.png,189045,250197,30,Man
135584,OSSe5,v2,jsons/s2.json,-0.30399588124903865,1366,768,1366,768,6-20-2023,10-44-50,1,13,c8,c8_large_notebook,notebook,R,classroom,1,scaled,c8_large_notebook_R.png,large,m,1,1018,13,7,c8_large_notebook_R.png,189045,250197,30,Man
135584,OSSe5,v2,jsons/s2.json,-0.47504362022808,1366,768,1366,768,6-20-2023,10-44-50,1,14,c9,c9_large_pot,pot,L,kitchen,0,scaled,c9_large_pot_L.png,large,c,1,888,14,4,c9_large_pot_L.png,189045,250197,30,Man
135584,OSSe5,v2,jsons/s2.json,-0.45136008713867426,1366,768,1366,768,6-20-2023,10-44-50,1,15,c4,c4_large_eraser,eraser,L,classroom,1,misscaled,c4_large_eraser_L.png,large,c,1,906,15,7,c4_large_eraser_L.png,189045,250197,30,Man
135584,OSSe5,v2,jsons/s2.json,-0.18689396764031033,1366,768,1366,768,6-20-2023,10-44-50,1,16,k4,k4_small_eraser,eraser,L,classroom,0,scaled,k4_small_eraser_L.png,small,c,1,1107,16,4,k4_small_eraser_L.png,189045,250197,30,Man
135584,OSSe5,v2,jsons/s2.json,-0.6895111698710319,1366,768,1366,768,6-20-2023,10-44-50,1,17,c10,c10_large_saltshaker,saltshaker,R,kitchen,0,misscaled,c10_large_saltshaker_R.png,large,m,1,725,17,7,c10_large_saltshaker_R.png,189045,250197,30,Man
135584,OSSe5,v2,jsons/s2.json,-0.5605674897176007,1366,768,1366,768,6-20-2023,10-44-50,1,18,k1,k1_large_toaster,toaster,L,kitchen,1,scaled,k1_large_toaster_L.png,large,c,1,823,18,7,k1_large_toaster_L.png,189045,250197,30,Man
135584,OSSe5,v2,jsons/s2.json,4.055089959039916,1366,768,1366,768,6-20-2023,10-44-50,1,19,c2,c2_large_binderclip,binderclip,R,classroom,1,misscaled,c2_large_binderclip_R.png,large,m,1,4331,19,6,c2_large_binderclip_R.png,189045,250197,30,Man
135584,OSSe5,v2,jsons/s2.json,-0.4816223794195816,1366,768,1366,768,6-20-2023,10-44-50,1,20,k3,k3_small_clipboard,clipboard,L,classroom,0,misscaled,k3_small_clipboard_L.png,small,c,1,883,20,3,k3_small_clipboard_L.png,189045,250197,30,Man
135584,OSSe5,v2,jsons/s2.json,-0.18031520844880874,1366,768,1366,768,6-20-2023,10-44-50,1,21,k6,k6_small_kettle,kettle,R,kitchen,1,misscaled,k6_small_kettle_R.png,small,m,1,1112,21,3,k6_small_kettle_R.png,189045,250197,30,Man
135584,OSSe5,v2,jsons/s2.json,-0.2500500558787256,1366,768,1366,768,6-20-2023,10-44-50,1,22,k10,k10_small_saltshaker,saltshaker,R,kitchen,1,scaled,k10_small_saltshaker_R.png,small,m,1,1059,22,4,k10_small_saltshaker_R.png,189045,250197,30,Man
135584,OSSe5,v2,jsons/s2.json,-0.15531592352110268,1366,768,1366,768,6-20-2023,10-44-50,1,23,c7,c7_large_laptop,laptop,R,classroom,1,scaled,c7_large_laptop_R.png,large,m,1,1131,23,5,c7_large_laptop_R.png,189045,250197,30,Man
508073,OSSe5,v2,jsons/s13.json,-1.0390606076724496,1309,684,1440,900,6-20-2023,10-7-2,1,0,k10,k10_large_sponge,sponge,R,kitchen,1,misscaled,k10_large_sponge_R.png,large,m,1,454,0,6,k10_large_sponge_R.png,213804,289913,36,Man
508073,OSSe5,v2,jsons/s13.json,-0.5496910982535362,1309,684,1440,900,6-20-2023,10-7-2,1,1,c10,c10_small_sponge,sponge,L,kitchen,0,scaled,c10_small_sponge_L.png,small,c,1,574,1,4,c10_small_sponge_L.png,213804,289913,36,Man
508073,OSSe5,v2,jsons/s13.json,-1.2103399359690694,1309,684,1440,900,6-20-2023,10-7-2,1,2,c0,c0_large_toaster,toaster,R,kitchen,0,scaled,c0_large_toaster_R.png,large,m,1,412,2,5,c0_large_toaster_R.png,213804,289913,36,Man
508073,OSSe5,v2,jsons/s13.json,1.1263994715062422,1309,684,1440,900,6-20-2023,10-7-2,1,3,c5,c5_small_kettle,kettle,L,kitchen,0,misscaled,c5_small_kettle_L.png,small,c,1,985,3,1,c5_small_kettle_L.png,213804,289913,36,Man
508073,OSSe5,v2,jsons/s13.json,0.7716065771775299,1309,684,1440,900,6-20-2023,10-7-2,1,4,k0,k0_small_toaster,toaster,L,kitchen,1,misscaled,k0_small_toaster_L.png,small,c,1,898,4,1,k0_small_toaster_L.png,213804,289913,36,Man
508073,OSSe5,v2,jsons/s13.json,-0.9778894189950854,1309,684,1440,900,6-20-2023,10-7-2,1,5,k5,k5_large_kettle,kettle,R,kitchen,1,scaled,k5_large_kettle_R.png,large,m,1,469,5,5,k5_large_kettle_R.png,213804,289913,36,Man
508073,OSSe5,v2,jsons/s13.json,1.1141652337707693,1309,684,1440,900,6-20-2023,10-7-2,1,6,c6,c6_small_laptop,laptop,L,classroom,1,misscaled,c6_small_laptop_L.png,small,c,1,982,6,1,c6_small_laptop_L.png,213804,289913,36,Man
508073,OSSe5,v2,jsons/s13.json,-0.41511448316333505,1309,684,1440,900,6-20-2023,10-7-2,1,7,k6,k6_large_laptop,laptop,L,classroom,0,scaled,k6_large_laptop_L.png,large,c,1,607,7,4,k6_large_laptop_L.png,213804,289913,36,Man
508073,OSSe5,v2,jsons/s13.json,-0.8718593586209875,1309,684,1440,900,6-20-2023,10-7-2,1,8,k9,k9_large_saltshaker,saltshaker,L,kitchen,1,misscaled,k9_large_saltshaker_L.png,large,c,1,495,8,6,k9_large_saltshaker_L.png,213804,289913,36,Man
508073,OSSe5,v2,jsons/s13.json,-0.8433128039048843,1309,684,1440,900,6-20-2023,10-7-2,1,9,k1,k1_large_binderclip,binderclip,L,classroom,0,misscaled,k1_large_binderclip_L.png,large,c,1,502,9,7,k1_large_binderclip_L.png,213804,289913,36,Man
508073,OSSe5,v2,jsons/s13.json,-0.3539432944859709,1309,684,1440,900,6-20-2023,10-7-2,1,10,c3,c3_small_eraser,eraser,R,classroom,1,scaled,c3_small_eraser_R.png,small,m,1,622,10,5,c3_small_eraser_R.png,213804,289913,36,Man
508073,OSSe5,v2,jsons/s13.json,-0.011384637892731512,1309,684,1440,900,6-20-2023,10-7-2,1,11,c1,c1_small_binderclip,binderclip,R,classroom,1,scaled,c1_small_binderclip_R.png,small,m,1,706,11,5,c1_small_binderclip_R.png,213804,289913,36,Man
508073,OSSe5,v2,jsons/s13.json,0.2700028300231437,1309,684,1440,900,6-20-2023,10-7-2,1,12,c4,c4_small_flashdrive,flashdrive,R,classroom,1,scaled,c4_small_flashdrive_R.png,small,c,0,775,12,6,c4_small_flashdrive_R.png,213804,289913,36,Man
508073,OSSe5,v2,jsons/s13.json,2.064357697892493,1309,684,1440,900,6-20-2023,10-7-2,1,13,c11,c11_small_spoon,spoon,L,kitchen,0,scaled,c11_small_spoon_L.png,small,c,1,1215,13,4,c11_small_spoon_L.png,213804,289913,36,Man
508073,OSSe5,v2,jsons/s13.json,1.1427117884868725,1309,684,1440,900,6-20-2023,10-7-2,1,14,c2,c2_small_clipboard,clipboard,R,classroom,1,misscaled,c2_small_clipboard_R.png,small,m,1,989,14,2,c2_small_clipboard_R.png,213804,289913,36,Man
508073,OSSe5,v2,jsons/s13.json,-0.8555470416403571,1309,684,1440,900,6-20-2023,10-7-2,1,15,k2,k2_large_clipboard,clipboard,L,classroom,0,scaled,k2_large_clipboard_L.png,large,c,1,499,15,4,k2_large_clipboard_L.png,213804,289913,36,Man
508073,OSSe5,v2,jsons/s13.json,-0.5007541473116449,1309,684,1440,900,6-20-2023,10-7-2,1,16,c8,c8_small_pot,pot,R,kitchen,0,misscaled,c8_small_pot_R.png,small,m,1,586,16,2,c8_small_pot_R.png,213804,289913,36,Man
508073,OSSe5,v2,jsons/s13.json,0.10687966021683923,1309,684,1440,900,6-20-2023,10-7-2,1,17,k7,k7_large_notebook,notebook,R,classroom,0,scaled,k7_large_notebook_R.png,large,m,1,735,17,4,k7_large_notebook_R.png,213804,289913,36,Man
508073,OSSe5,v2,jsons/s13.json,1.3139911167834923,1309,684,1440,900,6-20-2023,10-7-2,1,18,c7,c7_small_notebook,notebook,R,classroom,1,misscaled,c7_small_notebook_R.png,small,m,1,1031,18,2,c7_small_notebook_R.png,213804,289913,36,Man
508073,OSSe5,v2,jsons/s13.json,-0.6924238718340526,1309,684,1440,900,6-20-2023,10-7-2,1,19,c9,c9_small_saltshaker,saltshaker,R,kitchen,0,scaled,c9_small_saltshaker_R.png,small,m,1,539,19,4,c9_small_saltshaker_R.png,213804,289913,36,Man
508073,OSSe5,v2,jsons/s13.json,2.064357697892493,1309,684,1440,900,6-20-2023,10-7-2,1,20,k4,k4_large_flashdrive,flashdrive,L,classroom,0,misscaled,k4_large_flashdrive_L.png,large,c,1,1215,20,7,k4_large_flashdrive_L.png,213804,289913,36,Man
508073,OSSe5,v2,jsons/s13.json,-0.908562071827406,1309,684,1440,900,6-20-2023,10-7-2,1,21,k3,k3_large_eraser,eraser,R,classroom,0,misscaled,k3_large_eraser_R.png,large,m,1,486,21,7,k3_large_eraser_R.png,213804,289913,36,Man
508073,OSSe5,v2,jsons/s13.json,-0.6149403661760581,1309,684,1440,900,6-20-2023,10-7-2,1,22,k8,k8_large_pot,pot,L,kitchen,1,scaled,k8_large_pot_L.png,large,c,1,558,22,2,k8_large_pot_L.png,213804,289913,36,Man
508073,OSSe5,v2,jsons/s13.json,-0.12964893600230223,1309,684,1440,900,6-20-2023,10-7-2,1,23,k11,k11_large_spoon,spoon,L,kitchen,1,misscaled,k11_large_spoon_L.png,large,c,1,677,23,6,k11_large_spoon_L.png,213804,289913,36,Man
487906,OSSe5,v2,jsons/s1.json,1.2973399744777079,1366,625,1366,768,6-20-2023,7-23-12,1,0,c8,c8_large_pot,pot,R,kitchen,0,scaled,c8_large_pot_R.png,large,m,1,1490,0,3,c8_large_pot_R.png,274443,467775,30,Woman
487906,OSSe5,v2,jsons/s1.json,0.025407475169995038,1366,768,1366,768,6-20-2023,7-23-12,1,1,c7,c7_large_notebook,notebook,L,classroom,1,scaled,c7_large_notebook_L.png,large,c,1,1150,1,2,c7_large_notebook_L.png,274443,467775,30,Woman
487906,OSSe5,v2,jsons/s1.json,-0.528257259822774,1366,768,1366,768,6-20-2023,7-23-12,1,2,k1,k1_small_binderclip,binderclip,R,classroom,0,scaled,k1_small_binderclip_R.png,small,m,1,1002,2,1,k1_small_binderclip_R.png,274443,467775,30,Woman
487906,OSSe5,v2,jsons/s1.json,-0.5581850833358968,1366,768,1366,768,6-20-2023,7-23-12,1,3,c3,c3_large_eraser,eraser,R,classroom,1,misscaled,c3_large_eraser_R.png,large,m,1,994,3,2,c3_large_eraser_R.png,274443,467775,30,Woman
487906,OSSe5,v2,jsons/s1.json,0.7361932836066581,1366,768,1366,768,6-20-2023,7-23-12,1,4,k10,k10_small_sponge,sponge,L,kitchen,1,scaled,k10_small_sponge_L.png,small,c,1,1340,4,2,k10_small_sponge_L.png,274443,467775,30,Woman
487906,OSSe5,v2,jsons/s1.json,0.5341804748930802,1366,768,1366,768,6-20-2023,7-23-12,1,5,c6,c6_large_laptop,laptop,R,classroom,1,scaled,c6_large_laptop_R.png,large,m,1,1286,5,4,c6_large_laptop_R.png,274443,467775,30,Woman
487906,OSSe5,v2,jsons/s1.json,2.472007047367772,1366,768,1366,768,6-20-2023,7-23-12,1,6,k2,k2_small_clipboard,clipboard,L,classroom,0,misscaled,k2_small_clipboard_L.png,small,c,1,1804,6,1,k2_small_clipboard_L.png,274443,467775,30,Woman
487906,OSSe5,v2,jsons/s1.json,-0.8275354949540006,1366,768,1366,768,6-20-2023,7-23-12,1,7,c10,c10_large_sponge,sponge,R,kitchen,0,misscaled,c10_large_sponge_R.png,large,m,1,922,7,3,c10_large_sponge_R.png,274443,467775,30,Woman
487906,OSSe5,v2,jsons/s1.json,0.7511571953632195,1366,768,1366,768,6-20-2023,7-23-12,1,8,c11,c11_large_spoon,spoon,R,kitchen,0,misscaled,c11_large_spoon_R.png,large,c,0,1344,8,3,c11_large_spoon_R.png,274443,467775,30,Woman
487906,OSSe5,v2,jsons/s1.json,-0.8125715831974393,1366,768,1366,768,6-20-2023,7-23-12,1,9,k8,k8_small_pot,pot,R,kitchen,1,misscaled,k8_small_pot_R.png,small,m,1,926,9,1,k8_small_pot_R.png,274443,467775,30,Woman
487906,OSSe5,v2,jsons/s1.json,1.4282742023476196,1366,768,1366,768,6-20-2023,7-23-12,1,10,k4,k4_small_flashdrive,flashdrive,L,classroom,0,scaled,k4_small_flashdrive_L.png,small,c,1,1525,10,3,k4_small_flashdrive_L.png,274443,467775,30,Woman
487906,OSSe5,v2,jsons/s1.json,-0.5731489950924581,1366,768,1366,768,6-20-2023,7-23-12,1,11,c9,c9_large_saltshaker,saltshaker,R,kitchen,0,misscaled,c9_large_saltshaker_R.png,large,m,1,990,11,4,c9_large_saltshaker_R.png,274443,467775,30,Woman
487906,OSSe5,v2,jsons/s1.json,-0.20653315705670555,1366,768,1366,768,6-20-2023,7-23-12,1,12,k7,k7_small_notebook,notebook,L,classroom,0,misscaled,k7_small_notebook_L.png,small,c,1,1088,12,2,k7_small_notebook_L.png,274443,467775,30,Woman
487906,OSSe5,v2,jsons/s1.json,2.1951746798713874,1366,768,1366,768,6-20-2023,7-23-12,1,13,c0,c0_small_toaster,toaster,R,kitchen,0,misscaled,c0_small_toaster_R.png,small,m,1,1730,13,3,c0_small_toaster_R.png,274443,467775,30,Woman
487906,OSSe5,v2,jsons/s1.json,-0.8948730978585266,1366,768,1366,768,6-20-2023,7-23-12,1,14,c2,c2_large_clipboard,clipboard,L,classroom,1,scaled,c2_large_clipboard_L.png,large,c,1,904,14,5,c2_large_clipboard_L.png,274443,467775,30,Woman
487906,OSSe5,v2,jsons/s1.json,-0.8163125611365797,1366,768,1366,768,6-20-2023,7-23-12,1,15,k0,k0_large_toaster,toaster,R,kitchen,1,scaled,k0_large_toaster_R.png,large,m,1,925,15,5,k0_large_toaster_R.png,274443,467775,30,Woman
487906,OSSe5,v2,jsons/s1.json,0.05907627662225803,1366,768,1366,768,6-20-2023,7-23-12,1,16,k5,k5_small_kettle,kettle,L,kitchen,1,misscaled,k5_small_kettle_L.png,small,c,1,1159,16,2,k5_small_kettle_L.png,274443,467775,30,Woman
487906,OSSe5,v2,jsons/s1.json,-0.6891193112058084,1366,768,1366,768,6-20-2023,7-23-12,1,17,c4,c4_large_flashdrive,flashdrive,L,classroom,1,misscaled,c4_large_flashdrive_L.png,large,c,1,959,17,2,c4_large_flashdrive_L.png,274443,467775,30,Woman
487906,OSSe5,v2,jsons/s1.json,-0.5544441053967564,1366,768,1366,768,6-20-2023,7-23-12,1,18,k3,k3_small_eraser,eraser,R,classroom,0,scaled,k3_small_eraser_R.png,small,m,1,995,18,2,k3_small_eraser_R.png,274443,467775,30,Woman
487906,OSSe5,v2,jsons/s1.json,-0.2027921791175652,1366,768,1366,768,6-20-2023,7-23-12,1,19,k11,k11_small_spoon,spoon,L,kitchen,1,scaled,k11_small_spoon_L.png,small,c,1,1089,19,1,k11_small_spoon_L.png,274443,467775,30,Woman
487906,OSSe5,v2,jsons/s1.json,-1.1230727521460868,1366,768,1366,768,6-20-2023,7-23-12,1,20,k6,k6_small_laptop,laptop,L,classroom,0,misscaled,k6_small_laptop_L.png,small,c,1,843,20,4,k6_small_laptop_L.png,274443,467775,30,Woman
487906,OSSe5,v2,jsons/s1.json,-0.4010640098920028,1366,768,1366,768,6-20-2023,7-23-12,1,21,k9,k9_small_saltshaker,saltshaker,L,kitchen,1,scaled,k9_small_saltshaker_L.png,small,c,1,1036,21,2,k9_small_saltshaker_L.png,274443,467775,30,Woman
487906,OSSe5,v2,jsons/s1.json,-0.8462403846497023,1366,768,1366,768,6-20-2023,7-23-12,1,22,c5,c5_large_kettle,kettle,R,kitchen,0,scaled,c5_large_kettle_R.png,large,m,1,917,22,4,c5_large_kettle_R.png,274443,467775,30,Woman
487906,OSSe5,v2,jsons/s1.json,-0.46466063485738845,1366,768,1366,768,6-20-2023,7-23-12,1,23,c1,c1_large_binderclip,binderclip,L,classroom,1,misscaled,c1_large_binderclip_L.png,large,m,0,1019,23,2,c1_large_binderclip_L.png,274443,467775,30,Woman
696161,OSSe5,v2,jsons/s4.json,-0.3076307456032906,993,641,1366,768,6-20-2023,9-23-50,1,0,c0,c0_small_saltshaker,saltshaker,L,kitchen,0,scaled,c0_small_saltshaker_L.png,small,c,1,942,0,4,c0_small_saltshaker_L.png,317825,378786,44,Woman
696161,OSSe5,v2,jsons/s4.json,0.28314400841660226,993,641,1366,768,6-20-2023,9-23-50,1,1,c4,c4_large_binderclip,binderclip,L,classroom,1,misscaled,c4_large_binderclip_L.png,large,c,1,1515,1,7,c4_large_binderclip_L.png,317825,378786,44,Woman
696161,OSSe5,v2,jsons/s4.json,-0.6004405713304277,993,641,1366,768,6-20-2023,9-23-50,1,2,k1,k1_large_sponge,sponge,L,kitchen,1,misscaled,k1_large_sponge_L.png,large,c,1,658,2,7,k1_large_sponge_L.png,317825,378786,44,Woman
696161,OSSe5,v2,jsons/s4.json,-0.5478585251611179,993,641,1366,768,6-20-2023,9-23-50,1,3,c6,c6_large_eraser,eraser,L,classroom,1,misscaled,c6_large_eraser_L.png,large,c,1,709,3,7,c6_large_eraser_L.png,317825,378786,44,Woman
696161,OSSe5,v2,jsons/s4.json,-0.49321443796556064,993,641,1366,768,6-20-2023,9-23-50,1,4,c5,c5_large_clipboard,clipboard,R,classroom,1,scaled,c5_large_clipboard_R.png,large,m,1,762,4,4,c5_large_clipboard_R.png,317825,378786,44,Woman
696161,OSSe5,v2,jsons/s4.json,0.37181177254524234,993,641,1366,768,6-20-2023,9-23-50,1,5,k2,k2_large_spoon,spoon,R,kitchen,1,misscaled,k2_large_spoon_R.png,large,m,1,1601,5,7,k2_large_spoon_R.png,317825,378786,44,Woman
696161,OSSe5,v2,jsons/s4.json,2.0461890858581673,993,641,1366,768,6-20-2023,9-23-50,1,6,k4,k4_small_binderclip,binderclip,L,classroom,0,scaled,k4_small_binderclip_L.png,small,c,1,3225,6,7,k4_small_binderclip_L.png,317825,378786,44,Woman
696161,OSSe5,v2,jsons/s4.json,0.049102351937517275,993,641,1366,768,6-20-2023,9-23-50,1,7,k11,k11_small_pot,pot,L,kitchen,1,misscaled,k11_small_pot_L.png,small,c,1,1288,7,2,k11_small_pot_L.png,317825,378786,44,Woman
696161,OSSe5,v2,jsons/s4.json,-0.3055687045770432,993,641,1366,768,6-20-2023,9-23-50,1,8,k7,k7_small_flashdrive,flashdrive,R,classroom,0,scaled,k7_small_flashdrive_R.png,small,m,1,944,8,5,k7_small_flashdrive_R.png,317825,378786,44,Woman
696161,OSSe5,v2,jsons/s4.json,-0.39629850973193076,993,641,1366,768,6-20-2023,9-23-50,1,9,k0,k0_large_saltshaker,saltshaker,R,kitchen,1,misscaled,k0_large_saltshaker_R.png,large,m,1,856,9,7,k0_large_saltshaker_R.png,317825,378786,44,Woman
696161,OSSe5,v2,jsons/s4.json,-0.116891950675402,993,641,1366,768,6-20-2023,9-23-50,1,10,c3,c3_small_toaster,toaster,R,kitchen,0,misscaled,c3_small_toaster_R.png,small,m,1,1127,10,3,c3_small_toaster_R.png,317825,378786,44,Woman
696161,OSSe5,v2,jsons/s4.json,0.26458563918037525,993,641,1366,768,6-20-2023,9-23-50,1,11,c7,c7_large_flashdrive,flashdrive,R,classroom,1,misscaled,c7_large_flashdrive_R.png,large,m,1,1497,11,7,c7_large_flashdrive_R.png,317825,378786,44,Woman
696161,OSSe5,v2,jsons/s4.json,-0.5189899507936537,993,641,1366,768,6-20-2023,9-23-50,1,12,c10,c10_large_notebook,notebook,R,classroom,1,scaled,c10_large_notebook_R.png,large,m,1,737,12,4,c10_large_notebook_R.png,317825,378786,44,Woman
696161,OSSe5,v2,jsons/s4.json,-0.4870283148868183,993,641,1366,768,6-20-2023,9-23-50,1,13,c8,c8_large_kettle,kettle,R,kitchen,0,scaled,c8_large_kettle_R.png,large,m,1,768,13,7,c8_large_kettle_R.png,317825,378786,44,Woman
696161,OSSe5,v2,jsons/s4.json,0.03569908526690888,993,641,1366,768,6-20-2023,9-23-50,1,14,k8,k8_small_kettle,kettle,L,kitchen,1,misscaled,k8_small_kettle_L.png,small,c,1,1275,14,1,k8_small_kettle_L.png,317825,378786,44,Woman
696161,OSSe5,v2,jsons/s4.json,-0.1777221609497016,993,641,1366,768,6-20-2023,9-23-50,1,15,k6,k6_small_eraser,eraser,R,classroom,0,scaled,k6_small_eraser_R.png,small,m,1,1068,15,4,k6_small_eraser_R.png,317825,378786,44,Woman
696161,OSSe5,v2,jsons/s4.json,0.35119136228276787,993,641,1366,768,6-20-2023,9-23-50,1,16,c2,c2_small_spoon,spoon,L,kitchen,0,scaled,c2_small_spoon_L.png,small,c,1,1581,16,7,c2_small_spoon_L.png,317825,378786,44,Woman
696161,OSSe5,v2,jsons/s4.json,-0.7416903816283777,993,641,1366,768,6-20-2023,9-23-50,1,17,c1,c1_small_sponge,sponge,R,kitchen,0,scaled,c1_small_sponge_R.png,small,m,1,521,17,4,c1_small_sponge_R.png,317825,378786,44,Woman
696161,OSSe5,v2,jsons/s4.json,-0.6241540431322734,993,641,1366,768,6-20-2023,9-23-50,1,18,c9,c9_large_laptop,laptop,L,classroom,1,scaled,c9_large_laptop_L.png,large,c,1,635,18,4,c9_large_laptop_L.png,317825,378786,44,Woman
696161,OSSe5,v2,jsons/s4.json,-0.5303311764380146,993,641,1366,768,6-20-2023,9-23-50,1,19,c11,c11_large_pot,pot,L,kitchen,0,scaled,c11_large_pot_L.png,large,c,1,726,19,4,c11_large_pot_L.png,317825,378786,44,Woman
696161,OSSe5,v2,jsons/s4.json,3.8308855940753306,993,641,1366,768,6-20-2023,9-23-50,1,20,k5,k5_small_clipboard,clipboard,R,classroom,0,misscaled,k5_small_clipboard_R.png,small,m,1,4956,20,4,k5_small_clipboard_R.png,317825,378786,44,Woman
696161,OSSe5,v2,jsons/s4.json,-0.2602038019995994,993,641,1366,768,6-20-2023,9-23-50,1,21,k3,k3_large_toaster,toaster,R,kitchen,1,scaled,k3_large_toaster_R.png,large,m,1,988,21,7,k3_large_toaster_R.png,317825,378786,44,Woman
696161,OSSe5,v2,jsons/s4.json,-0.5726030174760872,993,641,1366,768,6-20-2023,9-23-50,1,22,k9,k9_small_laptop,laptop,L,classroom,0,misscaled,k9_small_laptop_L.png,small,c,1,685,22,1,k9_small_laptop_L.png,317825,378786,44,Woman
696161,OSSe5,v2,jsons/s4.json,-0.5519826072136128,993,641,1366,768,6-20-2023,9-23-50,1,23,k10,k10_small_notebook,notebook,L,classroom,0,misscaled,k10_small_notebook_L.png,small,c,1,705,23,4,k10_small_notebook_L.png,317825,378786,44,Woman
784892,OSSe5,v2,jsons/s4.json,0.3803641196243669,2165,1062,1732,993,6-20-2023,11-31-27,1,0,c0,c0_small_saltshaker,saltshaker,L,kitchen,0,scaled,c0_small_saltshaker_L.png,small,c,1,1436,0,4,c0_small_saltshaker_L.png,247140,499735,33,Man
784892,OSSe5,v2,jsons/s4.json,2.0271499628945193,2165,1062,1732,993,6-20-2023,11-31-27,1,1,c4,c4_large_binderclip,binderclip,R,classroom,1,misscaled,c4_large_binderclip_R.png,large,m,1,1828,1,7,c4_large_binderclip_R.png,247140,499735,33,Man
784892,OSSe5,v2,jsons/s4.json,1.0441196380852957,2165,1062,1732,993,6-20-2023,11-31-27,1,2,k1,k1_large_sponge,sponge,R,kitchen,1,misscaled,k1_large_sponge_R.png,large,m,1,1594,2,7,k1_large_sponge_R.png,247140,499735,33,Man
784892,OSSe5,v2,jsons/s4.json,1.3465905072573645,2165,1062,1732,993,6-20-2023,11-31-27,1,3,c6,c6_large_eraser,eraser,L,classroom,1,misscaled,c6_large_eraser_L.png,large,c,1,1666,3,7,c6_large_eraser_L.png,247140,499735,33,Man
784892,OSSe5,v2,jsons/s4.json,1.5650416905483029,2165,1062,1732,993,6-20-2023,11-31-27,1,4,c5,c5_large_clipboard,clipboard,R,classroom,1,scaled,c5_large_clipboard_R.png,large,m,1,1718,4,4,c5_large_clipboard_R.png,247140,499735,33,Man
784892,OSSe5,v2,jsons/s4.json,0.43917789974115806,2165,1062,1732,993,6-20-2023,11-31-27,1,5,k2,k2_large_spoon,spoon,R,kitchen,1,misscaled,k2_large_spoon_R.png,large,m,1,1450,5,7,k2_large_spoon_R.png,247140,499735,33,Man
784892,OSSe5,v2,jsons/s4.json,-0.539651440774009,2165,1062,1732,993,6-20-2023,11-31-27,1,6,k4,k4_small_binderclip,binderclip,R,classroom,0,scaled,k4_small_binderclip_R.png,small,m,1,1217,6,5,k4_small_binderclip_R.png,247140,499735,33,Man
784892,OSSe5,v2,jsons/s4.json,-0.581661283714574,2165,1062,1732,993,6-20-2023,11-31-27,1,7,k11,k11_small_pot,pot,R,kitchen,1,misscaled,k11_small_pot_R.png,small,m,1,1207,7,1,k11_small_pot_R.png,247140,499735,33,Man
784892,OSSe5,v2,jsons/s4.json,0.12830506198097624,2165,1062,1732,993,6-20-2023,11-31-27,1,8,k7,k7_small_flashdrive,flashdrive,R,classroom,0,scaled,k7_small_flashdrive_R.png,small,m,1,1376,8,4,k7_small_flashdrive_R.png,247140,499735,33,Man
784892,OSSe5,v2,jsons/s4.json,-0.8757301842985299,2165,1062,1732,993,6-20-2023,11-31-27,1,9,k0,k0_large_saltshaker,saltshaker,R,kitchen,1,misscaled,k0_large_saltshaker_R.png,large,m,1,1137,9,7,k0_large_saltshaker_R.png,247140,499735,33,Man
784892,OSSe5,v2,jsons/s4.json,0.5442025070925708,2165,1062,1732,993,6-20-2023,11-31-27,1,10,c3,c3_small_toaster,toaster,L,kitchen,0,misscaled,c3_small_toaster_L.png,small,c,1,1475,10,1,c3_small_toaster_L.png,247140,499735,33,Man
784892,OSSe5,v2,jsons/s4.json,-0.9303429801212645,2165,1062,1732,993,6-20-2023,11-31-27,1,11,c7,c7_large_flashdrive,flashdrive,R,classroom,1,misscaled,c7_large_flashdrive_R.png,large,m,1,1124,11,7,c7_large_flashdrive_R.png,247140,499735,33,Man
784892,OSSe5,v2,jsons/s4.json,-0.03973430978128418,2165,1062,1732,993,6-20-2023,11-31-27,1,12,c10,c10_large_notebook,notebook,L,classroom,1,scaled,c10_large_notebook_L.png,large,c,1,1336,12,4,c10_large_notebook_L.png,247140,499735,33,Man
784892,OSSe5,v2,jsons/s4.json,-0.8337203413579647,2165,1062,1732,993,6-20-2023,11-31-27,1,13,c8,c8_large_kettle,kettle,L,kitchen,0,scaled,c8_large_kettle_L.png,large,c,1,1147,13,5,c8_large_kettle_L.png,247140,499735,33,Man
784892,OSSe5,v2,jsons/s4.json,0.27954049656701063,2165,1062,1732,993,6-20-2023,11-31-27,1,14,k8,k8_small_kettle,kettle,L,kitchen,1,misscaled,k8_small_kettle_L.png,small,c,1,1412,14,1,k8_small_kettle_L.png,247140,499735,33,Man
784892,OSSe5,v2,jsons/s4.json,-1.6025004671703063,2165,1062,1732,993,6-20-2023,11-31-27,1,15,k6,k6_small_eraser,eraser,R,classroom,0,scaled,k6_small_eraser_R.png,small,m,1,964,15,5,k6_small_eraser_R.png,247140,499735,33,Man
784892,OSSe5,v2,jsons/s4.json,1.7750909052511286,2165,1062,1732,993,6-20-2023,11-31-27,1,16,c2,c2_small_spoon,spoon,R,kitchen,0,scaled,c2_small_spoon_R.png,small,m,1,1768,16,5,c2_small_spoon_R.png,247140,499735,33,Man
784892,OSSe5,v2,jsons/s4.json,-0.9051370743569255,2165,1062,1732,993,6-20-2023,11-31-27,1,17,c1,c1_small_sponge,sponge,L,kitchen,0,scaled,c1_small_sponge_L.png,small,m,0,1130,17,4,c1_small_sponge_L.png,247140,499735,33,Man
784892,OSSe5,v2,jsons/s4.json,-0.3212002574830704,2165,1062,1732,993,6-20-2023,11-31-27,1,18,c9,c9_large_laptop,laptop,L,classroom,1,scaled,c9_large_laptop_L.png,large,c,1,1269,18,4,c9_large_laptop_L.png,247140,499735,33,Man
784892,OSSe5,v2,jsons/s4.json,-0.03133234119317116,2165,1062,1732,993,6-20-2023,11-31-27,1,19,c11,c11_large_pot,pot,L,kitchen,0,scaled,c11_large_pot_L.png,large,c,1,1338,19,4,c11_large_pot_L.png,247140,499735,33,Man
784892,OSSe5,v2,jsons/s4.json,0.01067750174739395,2165,1062,1732,993,6-20-2023,11-31-27,1,20,k5,k5_small_clipboard,clipboard,L,classroom,0,misscaled,k5_small_clipboard_L.png,small,c,1,1348,20,3,k5_small_clipboard_L.png,247140,499735,33,Man
784892,OSSe5,v2,jsons/s4.json,-1.476470938348611,2165,1062,1732,993,6-20-2023,11-31-27,1,21,k3,k3_large_toaster,toaster,R,kitchen,1,scaled,k3_large_toaster_R.png,large,m,1,994,21,6,k3_large_toaster_R.png,247140,499735,33,Man
784892,OSSe5,v2,jsons/s4.json,-0.8505242785341908,2165,1062,1732,993,6-20-2023,11-31-27,1,22,k9,k9_small_laptop,laptop,L,classroom,0,misscaled,k9_small_laptop_L.png,small,c,1,1143,22,1,k9_small_laptop_L.png,247140,499735,33,Man
784892,OSSe5,v2,jsons/s4.json,-0.5522543936561786,2165,1062,1732,993,6-20-2023,11-31-27,1,23,k10,k10_small_notebook,notebook,L,classroom,0,misscaled,k10_small_notebook_L.png,small,c,1,1214,23,1,k10_small_notebook_L.png,247140,499735,33,Man
742763,OSSe5,v2,jsons/s12.json,2.086998005062957,1600,749,1600,900,6-20-2023,8-23-56,1,0,c11,c11_small_toaster,toaster,L,kitchen,0,misscaled,c11_small_toaster_L.png,small,m,0,1324,0,1,c11_small_toaster_L.png,333372,575612,66,Woman
742763,OSSe5,v2,jsons/s12.json,1.4697139972344633,1600,749,1600,900,6-20-2023,8-23-56,1,1,c1,c1_small_clipboard,clipboard,R,classroom,1,misscaled,c1_small_clipboard_R.png,small,m,1,1194,1,1,c1_small_clipboard_R.png,333372,575612,66,Woman
742763,OSSe5,v2,jsons/s12.json,-0.24443620912004577,1600,749,1600,900,6-20-2023,8-23-56,1,2,k11,k11_large_toaster,toaster,L,kitchen,1,scaled,k11_large_toaster_L.png,large,c,1,833,2,4,k11_large_toaster_L.png,333372,575612,66,Woman
742763,OSSe5,v2,jsons/s12.json,-0.026012637119194184,1600,749,1600,900,6-20-2023,8-23-56,1,3,c0,c0_small_binderclip,binderclip,L,classroom,1,scaled,c0_small_binderclip_L.png,small,c,1,879,3,4,c0_small_binderclip_L.png,333372,575612,66,Woman
742763,OSSe5,v2,jsons/s12.json,0.1924109348816574,1600,749,1600,900,6-20-2023,8-23-56,1,4,k0,k0_large_binderclip,binderclip,R,classroom,0,misscaled,k0_large_binderclip_R.png,large,m,1,925,4,7,k0_large_binderclip_R.png,333372,575612,66,Woman
742763,OSSe5,v2,jsons/s12.json,-0.7192700612958101,1600,749,1600,900,6-20-2023,8-23-56,1,5,k10,k10_large_spoon,spoon,R,kitchen,1,misscaled,k10_large_spoon_R.png,large,m,1,733,5,5,k10_large_spoon_R.png,333372,575612,66,Woman
742763,OSSe5,v2,jsons/s12.json,0.5580330010569959,1600,749,1600,900,6-20-2023,8-23-56,1,6,c4,c4_small_kettle,kettle,L,kitchen,0,misscaled,c4_small_kettle_L.png,small,c,1,1002,6,1,c4_small_kettle_L.png,333372,575612,66,Woman
742763,OSSe5,v2,jsons/s12.json,-0.985177018514238,1600,749,1600,900,6-20-2023,8-23-56,1,7,k1,k1_large_clipboard,clipboard,L,classroom,0,scaled,k1_large_clipboard_L.png,large,c,1,677,7,4,k1_large_clipboard_L.png,333372,575612,66,Woman
742763,OSSe5,v2,jsons/s12.json,0.06420579479420103,1600,749,1600,900,6-20-2023,8-23-56,1,8,c2,c2_small_eraser,eraser,R,classroom,1,scaled,c2_small_eraser_R.png,small,m,1,898,8,5,c2_small_eraser_R.png,333372,575612,66,Woman
742763,OSSe5,v2,jsons/s12.json,-1.4742558862552753,1600,749,1600,900,6-20-2023,8-23-56,1,9,k7,k7_large_pot,pot,L,kitchen,1,scaled,k7_large_pot_L.png,large,c,1,574,9,3,k7_large_pot_L.png,333372,575612,66,Woman
742763,OSSe5,v2,jsons/s12.json,-0.4058797188598056,1600,749,1600,900,6-20-2023,8-23-56,1,10,c6,c6_small_notebook,notebook,L,classroom,1,misscaled,c6_small_notebook_L.png,small,c,1,799,10,1,c6_small_notebook_L.png,333372,575612,66,Woman
742763,OSSe5,v2,jsons/s12.json,-0.26342956320707633,1600,749,1600,900,6-20-2023,8-23-56,1,11,k8,k8_large_saltshaker,saltshaker,L,kitchen,1,misscaled,k8_large_saltshaker_L.png,large,c,1,829,11,5,k8_large_saltshaker_L.png,333372,575612,66,Woman
742763,OSSe5,v2,jsons/s12.json,-0.7192700612958101,1600,749,1600,900,6-20-2023,8-23-56,1,12,k5,k5_large_laptop,laptop,R,classroom,0,scaled,k5_large_laptop_R.png,large,m,1,733,12,4,k5_large_laptop_R.png,333372,575612,66,Woman
742763,OSSe5,v2,jsons/s12.json,1.11358860810264,1600,749,1600,900,6-20-2023,8-23-56,1,13,k2,k2_large_eraser,eraser,L,classroom,0,misscaled,k2_large_eraser_L.png,large,c,1,1119,13,7,k2_large_eraser_L.png,333372,575612,66,Woman
742763,OSSe5,v2,jsons/s12.json,-0.5388331974690196,1600,749,1600,900,6-20-2023,8-23-56,1,14,k3,k3_large_flashdrive,flashdrive,L,classroom,0,misscaled,k3_large_flashdrive_L.png,large,c,1,771,14,7,k3_large_flashdrive_L.png,333372,575612,66,Woman
742763,OSSe5,v2,jsons/s12.json,0.36335112166493255,1600,749,1600,900,6-20-2023,8-23-56,1,15,k6,k6_large_notebook,notebook,R,classroom,0,scaled,k6_large_notebook_R.png,large,m,1,961,15,4,k6_large_notebook_R.png,333372,575612,66,Woman
742763,OSSe5,v2,jsons/s12.json,1.7023825848005878,1600,749,1600,900,6-20-2023,8-23-56,1,16,k4,k4_large_kettle,kettle,L,kitchen,1,scaled,k4_large_kettle_L.png,large,c,1,1243,16,7,k4_large_kettle_L.png,333372,575612,66,Woman
742763,OSSe5,v2,jsons/s12.json,-0.16371445425016584,1600,749,1600,900,6-20-2023,8-23-56,1,17,c8,c8_small_saltshaker,saltshaker,R,kitchen,0,scaled,c8_small_saltshaker_R.png,small,m,1,850,17,4,c8_small_saltshaker_R.png,333372,575612,66,Woman
742763,OSSe5,v2,jsons/s12.json,0.17816591931638445,1600,749,1600,900,6-20-2023,8-23-56,1,18,c10,c10_small_spoon,spoon,R,kitchen,0,scaled,c10_small_spoon_R.png,small,m,1,922,18,4,c10_small_spoon_R.png,333372,575612,66,Woman
742763,OSSe5,v2,jsons/s12.json,-1.46475920921176,1600,749,1600,900,6-20-2023,8-23-56,1,19,c3,c3_small_flashdrive,flashdrive,L,classroom,1,scaled,c3_small_flashdrive_L.png,small,c,1,576,19,4,c3_small_flashdrive_L.png,333372,575612,66,Woman
742763,OSSe5,v2,jsons/s12.json,-0.6860316916435065,1600,749,1600,900,6-20-2023,8-23-56,1,20,c7,c7_small_pot,pot,R,kitchen,0,misscaled,c7_small_pot_R.png,small,m,1,740,20,1,c7_small_pot_R.png,333372,575612,66,Woman
742763,OSSe5,v2,jsons/s12.json,-1.3270573920807884,1600,749,1600,900,6-20-2023,8-23-56,1,21,k9,k9_large_sponge,sponge,R,kitchen,1,misscaled,k9_large_sponge_R.png,large,m,1,605,21,7,k9_large_sponge_R.png,333372,575612,66,Woman
742763,OSSe5,v2,jsons/s12.json,1.289277133407673,1600,749,1600,900,6-20-2023,8-23-56,1,23,c5,c5_small_laptop,laptop,R,classroom,1,misscaled,c5_small_laptop_R.png,small,c,0,1156,23,1,c5_small_laptop_R.png,333372,575612,66,Woman
980703,OSSe5,v2,jsons/s3.json,0.23772860103589932,1364,625,1364,768,6-20-2023,8-34-36,1,0,c10,c10_large_pot,pot,L,kitchen,0,scaled,c10_large_pot_L.png,large,c,1,1960,0,7,c10_large_pot_L.png,377632,563049,58,Man
980703,OSSe5,v2,jsons/s3.json,3.299168341102425,1364,625,1364,768,6-20-2023,8-34-36,1,1,k3,k3_small_binderclip,binderclip,L,classroom,0,scaled,k3_small_binderclip_L.png,small,c,1,3791,1,4,k3_small_binderclip_L.png,377632,563049,58,Man
980703,OSSe5,v2,jsons/s3.json,0.20094450803673844,1364,625,1364,768,6-20-2023,8-34-36,1,2,c7,c7_large_kettle,kettle,L,kitchen,0,scaled,c7_large_kettle_L.png,large,c,1,1938,2,4,c7_large_kettle_L.png,377632,563049,58,Man
980703,OSSe5,v2,jsons/s3.json,-0.4996252631745528,1364,625,1364,768,6-20-2023,8-34-36,1,3,k5,k5_small_eraser,eraser,R,classroom,0,scaled,k5_small_eraser_R.png,small,m,1,1519,3,4,k5_small_eraser_R.png,377632,563049,58,Man
980703,OSSe5,v2,jsons/s3.json,-0.7236738296239872,1364,625,1364,768,6-20-2023,8-34-36,1,4,c3,c3_large_binderclip,binderclip,L,classroom,1,misscaled,c3_large_binderclip_L.png,large,c,1,1385,4,7,c3_large_binderclip_L.png,377632,563049,58,Man
980703,OSSe5,v2,jsons/s3.json,-1.1617389371594486,1364,625,1364,768,6-20-2023,8-34-36,1,5,c5,c5_large_eraser,eraser,R,classroom,1,misscaled,c5_large_eraser_R.png,large,m,1,1123,5,7,c5_large_eraser_R.png,377632,563049,58,Man
980703,OSSe5,v2,jsons/s3.json,-0.7755059606682594,1364,625,1364,768,6-20-2023,8-34-36,1,6,k4,k4_small_clipboard,clipboard,L,classroom,0,misscaled,k4_small_clipboard_L.png,small,c,1,1354,6,4,k4_small_clipboard_L.png,377632,563049,58,Man
980703,OSSe5,v2,jsons/s3.json,-0.4845772251294415,1364,625,1364,768,6-20-2023,8-34-36,1,7,c2,c2_small_toaster,toaster,R,kitchen,0,misscaled,c2_small_toaster_R.png,small,m,1,1528,7,2,c2_small_toaster_R.png,377632,563049,58,Man
980703,OSSe5,v2,jsons/s3.json,-0.34580087426897094,1364,625,1364,768,6-20-2023,8-34-36,1,8,k10,k10_small_pot,pot,R,kitchen,1,misscaled,k10_small_pot_R.png,small,m,1,1611,8,1,k10_small_pot_R.png,377632,563049,58,Man
980703,OSSe5,v2,jsons/s3.json,0.06049615294903328,1364,625,1364,768,6-20-2023,8-34-36,1,9,k2,k2_large_toaster,toaster,R,kitchen,1,scaled,k2_large_toaster_R.png,large,m,1,1854,9,7,k2_large_toaster_R.png,377632,563049,58,Man
980703,OSSe5,v2,jsons/s3.json,0.1925844869005655,1364,625,1364,768,6-20-2023,8-34-36,1,10,k1,k1_large_spoon,spoon,L,kitchen,1,misscaled,k1_large_spoon_L.png,large,c,1,1933,10,7,k1_large_spoon_L.png,377632,563049,58,Man
980703,OSSe5,v2,jsons/s3.json,-0.4962812547200836,1364,625,1364,768,6-20-2023,8-34-36,1,11,k0,k0_large_sponge,sponge,L,kitchen,1,misscaled,k0_large_sponge_L.png,large,c,1,1521,11,7,k0_large_sponge_L.png,377632,563049,58,Man
980703,OSSe5,v2,jsons/s3.json,-0.06992017677526437,1364,625,1364,768,6-20-2023,8-34-36,1,12,c4,c4_large_clipboard,clipboard,R,classroom,1,scaled,c4_large_clipboard_R.png,large,m,1,1776,12,7,c4_large_clipboard_R.png,377632,563049,58,Man
980703,OSSe5,v2,jsons/s3.json,1.0202265793816852,1364,625,1364,768,6-20-2023,8-34-36,1,13,k8,k8_small_laptop,laptop,L,classroom,0,misscaled,k8_small_laptop_L.png,small,m,0,2428,13,1,k8_small_laptop_L.png,377632,563049,58,Man
980703,OSSe5,v2,jsons/s3.json,0.5019052689389638,1364,625,1364,768,6-20-2023,8-34-36,1,16,c6,c6_large_flashdrive,flashdrive,L,classroom,1,misscaled,c6_large_flashdrive_L.png,large,c,1,2118,16,7,c6_large_flashdrive_L.png,377632,563049,58,Man
980703,OSSe5,v2,jsons/s3.json,-0.6233535759899121,1364,625,1364,768,6-20-2023,8-34-36,1,17,c1,c1_small_spoon,spoon,L,kitchen,0,scaled,c1_small_spoon_L.png,small,c,1,1445,17,7,c1_small_spoon_L.png,377632,563049,58,Man
980703,OSSe5,v2,jsons/s3.json,-0.21036853186296953,1364,625,1364,768,6-20-2023,8-34-36,1,18,k11,k11_small_saltshaker,saltshaker,L,kitchen,1,scaled,k11_small_saltshaker_L.png,small,c,1,1692,18,1,k11_small_saltshaker_L.png,377632,563049,58,Man
980703,OSSe5,v2,jsons/s3.json,-0.5079852843107258,1364,625,1364,768,6-20-2023,8-34-36,1,19,c9,c9_large_notebook,notebook,L,classroom,1,scaled,c9_large_notebook_L.png,large,c,1,1514,19,4,c9_large_notebook_L.png,377632,563049,58,Man
980703,OSSe5,v2,jsons/s3.json,-0.6032895252630971,1364,625,1364,768,6-20-2023,8-34-36,1,20,k6,k6_small_flashdrive,flashdrive,R,classroom,0,scaled,k6_small_flashdrive_R.png,small,c,0,1457,20,4,k6_small_flashdrive_R.png,377632,563049,58,Man
980703,OSSe5,v2,jsons/s3.json,-0.5614894195822324,1364,625,1364,768,6-20-2023,8-34-36,1,21,c8,c8_large_laptop,laptop,R,classroom,1,scaled,c8_large_laptop_R.png,large,m,1,1482,21,4,c8_large_laptop_R.png,377632,563049,58,Man
980703,OSSe5,v2,jsons/s3.json,-0.4043210222221814,1364,625,1364,768,6-20-2023,8-34-36,1,22,c0,c0_small_sponge,sponge,R,kitchen,0,scaled,c0_small_sponge_R.png,small,m,1,1576,22,4,c0_small_sponge_R.png,377632,563049,58,Man
980703,OSSe5,v2,jsons/s3.json,1.9548769424058183,1364,625,1364,768,6-20-2023,8-34-36,1,23,k9,k9_small_notebook,notebook,R,classroom,0,misscaled,k9_small_notebook_R.png,small,m,1,2987,23,4,k9_small_notebook_R.png,377632,563049,58,Man
165473,OSSe5,v2,jsons/s1.json,-0.7592809409566906,1440,799,1440,900,6-20-2023,7-37-57,1,0,c8,c8_large_pot,pot,R,kitchen,0,scaled,c8_large_pot_R.png,large,m,1,792,0,3,c8_large_pot_R.png,160542,554957,35,Man
165473,OSSe5,v2,jsons/s1.json,0.678678962147315,1440,799,1440,900,6-20-2023,7-37-57,1,1,c7,c7_large_notebook,notebook,R,classroom,1,scaled,c7_large_notebook_R.png,large,m,1,2188,1,4,c7_large_notebook_R.png,160542,554957,35,Man
165473,OSSe5,v2,jsons/s1.json,-0.9364507857517401,1440,799,1440,900,6-20-2023,7-37-57,1,2,k1,k1_small_binderclip,binderclip,L,classroom,0,scaled,k1_small_binderclip_L.png,small,c,1,620,2,3,k1_small_binderclip_L.png,160542,554957,35,Man
165473,OSSe5,v2,jsons/s1.json,-0.6325839007834867,1440,799,1440,900,6-20-2023,7-37-57,1,3,c3,c3_large_eraser,eraser,L,classroom,1,misscaled,c3_large_eraser_L.png,large,c,1,915,3,5,c3_large_eraser_L.png,160542,554957,35,Man
165473,OSSe5,v2,jsons/s1.json,0.1585000573711525,1440,799,1440,900,6-20-2023,7-37-57,1,4,k10,k10_small_sponge,sponge,L,kitchen,1,scaled,k10_small_sponge_L.png,small,c,1,1683,4,3,k10_small_sponge_L.png,160542,554957,35,Man
165473,OSSe5,v2,jsons/s1.json,-0.31738638620624765,1440,799,1440,900,6-20-2023,7-37-57,1,5,c6,c6_large_laptop,laptop,L,classroom,1,scaled,c6_large_laptop_L.png,large,c,1,1221,5,4,c6_large_laptop_L.png,160542,554957,35,Man
165473,OSSe5,v2,jsons/s1.json,0.9691551030322216,1440,799,1440,900,6-20-2023,7-37-57,1,6,k2,k2_small_clipboard,clipboard,R,classroom,0,misscaled,k2_small_clipboard_R.png,small,m,1,2470,6,5,k2_small_clipboard_R.png,160542,554957,35,Man
165473,OSSe5,v2,jsons/s1.json,-0.7067480218604841,1440,799,1440,900,6-20-2023,7-37-57,1,7,c10,c10_large_sponge,sponge,L,kitchen,0,misscaled,c10_large_sponge_L.png,large,c,1,843,7,3,c10_large_sponge_L.png,160542,554957,35,Man
165473,OSSe5,v2,jsons/s1.json,1.6077905900841438,1440,799,1440,900,6-20-2023,7-37-57,1,8,c11,c11_large_spoon,spoon,L,kitchen,0,misscaled,c11_large_spoon_L.png,large,c,1,3090,8,4,c11_large_spoon_L.png,160542,554957,35,Man
165473,OSSe5,v2,jsons/s1.json,0.7415124536153267,1440,799,1440,900,6-20-2023,7-37-57,1,9,k8,k8_small_pot,pot,L,kitchen,1,misscaled,k8_small_pot_L.png,small,c,1,2249,9,5,k8_small_pot_L.png,160542,554957,35,Man
165473,OSSe5,v2,jsons/s1.json,2.0229036566678933,1440,799,1440,900,6-20-2023,7-37-57,1,10,k4,k4_small_flashdrive,flashdrive,R,classroom,0,scaled,k4_small_flashdrive_R.png,small,m,1,3493,10,4,k4_small_flashdrive_R.png,160542,554957,35,Man
165473,OSSe5,v2,jsons/s1.json,-0.13403619798811514,1440,799,1440,900,6-20-2023,7-37-57,1,11,c9,c9_large_saltshaker,saltshaker,R,kitchen,0,misscaled,c9_large_saltshaker_R.png,large,m,1,1399,11,3,c9_large_saltshaker_R.png,160542,554957,35,Man
165473,OSSe5,v2,jsons/s1.json,0.5664027232946384,1440,799,1440,900,6-20-2023,7-37-57,1,12,k7,k7_small_notebook,notebook,R,classroom,0,misscaled,k7_small_notebook_R.png,small,m,1,2079,12,4,k7_small_notebook_R.png,160542,554957,35,Man
165473,OSSe5,v2,jsons/s1.json,-0.6851168198796932,1440,799,1440,900,6-20-2023,7-37-57,1,13,c0,c0_small_toaster,toaster,R,kitchen,0,misscaled,c0_small_toaster_R.png,small,m,1,864,13,3,c0_small_toaster_R.png,160542,554957,35,Man
165473,OSSe5,v2,jsons/s1.json,-0.23807197894334764,1440,799,1440,900,6-20-2023,7-37-57,1,14,c2,c2_large_clipboard,clipboard,L,classroom,1,scaled,c2_large_clipboard_L.png,large,c,1,1298,14,4,c2_large_clipboard_L.png,160542,554957,35,Man
165473,OSSe5,v2,jsons/s1.json,2.5183611877517236,1440,799,1440,900,6-20-2023,7-37-57,1,15,k0,k0_large_toaster,toaster,L,kitchen,1,scaled,k0_large_toaster_L.png,large,c,1,3974,15,4,k0_large_toaster_L.png,160542,554957,35,Man
165473,OSSe5,v2,jsons/s1.json,-0.6892370488284153,1440,799,1440,900,6-20-2023,7-37-57,1,16,k5,k5_small_kettle,kettle,L,kitchen,1,misscaled,k5_small_kettle_L.png,small,c,1,860,16,5,k5_small_kettle_L.png,160542,554957,35,Man
165473,OSSe5,v2,jsons/s1.json,0.5767032956664435,1440,799,1440,900,6-20-2023,7-37-57,1,17,c4,c4_large_flashdrive,flashdrive,R,classroom,1,misscaled,c4_large_flashdrive_R.png,large,m,1,2089,17,4,c4_large_flashdrive_R.png,160542,554957,35,Man
165473,OSSe5,v2,jsons/s1.json,-0.8447756916426739,1440,799,1440,900,6-20-2023,7-37-57,1,18,k3,k3_small_eraser,eraser,R,classroom,0,scaled,k3_small_eraser_R.png,small,m,1,709,18,3,k3_small_eraser_R.png,160542,554957,35,Man
165473,OSSe5,v2,jsons/s1.json,-0.595501840244988,1440,799,1440,900,6-20-2023,7-37-57,1,19,k11,k11_small_spoon,spoon,R,kitchen,1,scaled,k11_small_spoon_R.png,small,m,1,951,19,4,k11_small_spoon_R.png,160542,554957,35,Man
165473,OSSe5,v2,jsons/s1.json,-0.9395409574632816,1440,799,1440,900,6-20-2023,7-37-57,1,20,k6,k6_small_laptop,laptop,L,classroom,0,misscaled,k6_small_laptop_L.png,small,c,1,617,20,5,k6_small_laptop_L.png,160542,554957,35,Man
165473,OSSe5,v2,jsons/s1.json,-0.6099226415655153,1440,799,1440,900,6-20-2023,7-37-57,1,21,k9,k9_small_saltshaker,saltshaker,R,kitchen,1,scaled,k9_small_saltshaker_R.png,small,m,1,937,21,4,k9_small_saltshaker_R.png,160542,554957,35,Man
165473,OSSe5,v2,jsons/s1.json,-0.9828033614248635,1440,799,1440,900,6-20-2023,7-37-57,1,22,c5,c5_large_kettle,kettle,R,kitchen,0,scaled,c5_large_kettle_R.png,large,m,1,575,22,5,c5_large_kettle_R.png,160542,554957,35,Man
165473,OSSe5,v2,jsons/s1.json,-0.7685514560913154,1440,799,1440,900,6-20-2023,7-37-57,1,23,c1,c1_large_binderclip,binderclip,L,classroom,1,misscaled,c1_large_binderclip_L.png,large,c,1,783,23,3,c1_large_binderclip_L.png,160542,554957,35,Man
936616,OSSe5,v2,jsons/s0.json,-0.42945083512633403,1920,969,1920,1080,6-20-2023,0-19-23,1,0,c3,c3_large_flashdrive,flashdrive,R,classroom,1,misscaled,c3_large_flashdrive_R.png,large,m,1,1067,0,6,c3_large_flashdrive_R.png,291600,394310,50,Woman
936616,OSSe5,v2,jsons/s0.json,0.37988392178443064,1920,969,1920,1080,6-20-2023,0-19-23,1,1,c10,c10_large_spoon,spoon,L,kitchen,0,misscaled,c10_large_spoon_L.png,large,c,1,1352,1,7,c10_large_spoon_L.png,291600,394310,50,Woman
936616,OSSe5,v2,jsons/s0.json,1.6549411353034948,1920,969,1920,1080,6-20-2023,0-19-23,1,2,k2,k2_small_eraser,eraser,L,classroom,0,scaled,k2_small_eraser_L.png,small,c,1,1801,2,7,k2_small_eraser_L.png,291600,394310,50,Woman
936616,OSSe5,v2,jsons/s0.json,-0.7929415329669581,1920,969,1920,1080,6-20-2023,0-19-23,1,3,c2,c2_large_eraser,eraser,R,classroom,1,misscaled,c2_large_eraser_R.png,large,m,1,939,3,7,c2_large_eraser_R.png,291600,394310,50,Woman
936616,OSSe5,v2,jsons/s0.json,-0.02052380005563189,1920,969,1920,1080,6-20-2023,0-19-23,1,4,c5,c5_large_laptop,laptop,L,classroom,1,scaled,c5_large_laptop_L.png,large,c,1,1211,4,5,c5_large_laptop_L.png,291600,394310,50,Woman
936616,OSSe5,v2,jsons/s0.json,-0.0432419686706709,1920,969,1920,1080,6-20-2023,0-19-23,1,5,c11,c11_large_toaster,toaster,R,kitchen,0,scaled,c11_large_toaster_R.png,large,m,1,1203,5,5,c11_large_toaster_R.png,291600,394310,50,Woman
936616,OSSe5,v2,jsons/s0.json,-0.0006454025174727578,1920,969,1920,1080,6-20-2023,0-19-23,1,6,k1,k1_small_clipboard,clipboard,L,classroom,0,misscaled,k1_small_clipboard_L.png,small,c,1,1218,6,4,k1_small_clipboard_L.png,291600,394310,50,Woman
936616,OSSe5,v2,jsons/s0.json,0.24357491009419657,1920,969,1920,1080,6-20-2023,0-19-23,1,7,k3,k3_small_flashdrive,flashdrive,R,classroom,0,scaled,k3_small_flashdrive_R.png,small,m,1,1304,7,5,k3_small_flashdrive_R.png,291600,394310,50,Woman
936616,OSSe5,v2,jsons/s0.json,0.2265362836329173,1920,969,1920,1080,6-20-2023,0-19-23,1,8,k8,k8_small_saltshaker,saltshaker,R,kitchen,1,scaled,k8_small_saltshaker_R.png,small,m,1,1298,8,4,k8_small_saltshaker_R.png,291600,394310,50,Woman
936616,OSSe5,v2,jsons/s0.json,3.441157142660937,1920,969,1920,1080,6-20-2023,0-19-23,1,9,k4,k4_small_kettle,kettle,R,kitchen,1,misscaled,k4_small_kettle_R.png,small,c,0,2430,9,3,k4_small_kettle_R.png,291600,394310,50,Woman
936616,OSSe5,v2,jsons/s0.json,-0.6395938948154448,1920,969,1920,1080,6-20-2023,0-19-23,1,12,c4,c4_large_kettle,kettle,R,kitchen,0,scaled,c4_large_kettle_R.png,large,m,1,993,12,4,c4_large_kettle_R.png,291600,394310,50,Woman
936616,OSSe5,v2,jsons/s0.json,0.5729883550122622,1920,969,1920,1080,6-20-2023,0-19-23,1,13,k0,k0_small_binderclip,binderclip,L,classroom,0,scaled,k0_small_binderclip_L.png,small,c,1,1420,13,5,k0_small_binderclip_L.png,291600,394310,50,Woman
936616,OSSe5,v2,jsons/s0.json,-0.5544007625090486,1920,969,1920,1080,6-20-2023,0-19-23,1,14,k10,k10_small_spoon,spoon,R,kitchen,1,scaled,k10_small_spoon_R.png,small,m,1,1023,14,6,k10_small_spoon_R.png,291600,394310,50,Woman
936616,OSSe5,v2,jsons/s0.json,-0.5827984732778473,1920,969,1920,1080,6-20-2023,0-19-23,1,15,c0,c0_large_binderclip,binderclip,L,classroom,1,misscaled,c0_large_binderclip_L.png,large,c,1,1013,15,7,c0_large_binderclip_L.png,291600,394310,50,Woman
936616,OSSe5,v2,jsons/s0.json,-0.6850302320455228,1920,969,1920,1080,6-20-2023,0-19-23,1,16,k9,k9_small_sponge,sponge,L,kitchen,1,scaled,k9_small_sponge_L.png,small,c,1,977,16,4,k9_small_sponge_L.png,291600,394310,50,Woman
936616,OSSe5,v2,jsons/s0.json,-0.42945083512633403,1920,969,1920,1080,6-20-2023,0-19-23,1,17,k11,k11_small_toaster,toaster,R,kitchen,1,misscaled,k11_small_toaster_R.png,small,m,1,1067,17,1,k11_small_toaster_R.png,291600,394310,50,Woman
936616,OSSe5,v2,jsons/s0.json,-1.093957267116225,1920,969,1920,1080,6-20-2023,0-19-23,1,18,c9,c9_large_sponge,sponge,L,kitchen,0,misscaled,c9_large_sponge_L.png,large,c,1,833,18,7,c9_large_sponge_L.png,291600,394310,50,Woman
936616,OSSe5,v2,jsons/s0.json,0.7973302700857724,1920,969,1920,1080,6-20-2023,0-19-23,1,19,k7,k7_small_pot,pot,L,kitchen,1,misscaled,k7_small_pot_L.png,small,c,1,1499,19,1,k7_small_pot_L.png,291600,394310,50,Woman
936616,OSSe5,v2,jsons/s0.json,-0.5657598468165681,1920,969,1920,1080,6-20-2023,0-19-23,1,20,c6,c6_large_notebook,notebook,L,classroom,1,scaled,c6_large_notebook_L.png,large,c,1,1019,20,7,c6_large_notebook_L.png,291600,394310,50,Woman
936616,OSSe5,v2,jsons/s0.json,0.04195116363572538,1920,969,1920,1080,6-20-2023,0-19-23,1,21,k6,k6_small_notebook,notebook,R,classroom,0,misscaled,k6_small_notebook_R.png,small,m,1,1233,21,1,k6_small_notebook_R.png,291600,394310,50,Woman
936616,OSSe5,v2,jsons/s0.json,-0.7418256535831204,1920,969,1920,1080,6-20-2023,0-19-23,1,22,c7,c7_large_pot,pot,R,kitchen,0,scaled,c7_large_pot_R.png,large,m,1,957,22,4,c7_large_pot_R.png,291600,394310,50,Woman
936616,OSSe5,v2,jsons/s0.json,-0.7787426775825588,1920,969,1920,1080,6-20-2023,0-19-23,1,23,c8,c8_large_saltshaker,saltshaker,R,kitchen,0,misscaled,c8_large_saltshaker_R.png,large,m,1,944,23,6,c8_large_saltshaker_R.png,291600,394310,50,Woman
263691,OSSe5,v2,jsons/s19.json,-0.4568243825165477,1081,959,1920,1080,6-20-2023,10-25-27,1,0,k11,k11_large_kettle,kettle,L,kitchen,1,scaled,k11_large_kettle_L.png,large,c,1,600,0,5,k11_large_kettle_L.png,273826,1578508,39,Woman
263691,OSSe5,v2,jsons/s19.json,-0.2182129226805122,1081,959,1920,1080,6-20-2023,10-25-27,1,1,k4,k4_small_sponge,sponge,R,kitchen,1,scaled,k4_small_sponge_R.png,small,m,1,658,1,5,k4_small_sponge_R.png,273826,1578508,39,Woman
263691,OSSe5,v2,jsons/s19.json,2.6780365208465398,1081,959,1920,1080,6-20-2023,10-25-27,1,2,c11,c11_small_kettle,kettle,L,kitchen,0,misscaled,c11_small_kettle_L.png,small,c,1,1362,2,1,c11_small_kettle_L.png,273826,1578508,39,Woman
263691,OSSe5,v2,jsons/s19.json,-0.5349902055662835,1081,959,1920,1080,6-20-2023,10-25-27,1,3,k1,k1_small_notebook,notebook,R,classroom,0,misscaled,k1_small_notebook_R.png,small,m,1,581,3,3,k1_small_notebook_R.png,273826,1578508,39,Woman
263691,OSSe5,v2,jsons/s19.json,-0.5185342428189708,1081,959,1920,1080,6-20-2023,10-25-27,1,4,c4,c4_large_sponge,sponge,L,kitchen,0,misscaled,c4_large_sponge_L.png,large,c,1,585,4,7,c4_large_sponge_L.png,273826,1578508,39,Woman
263691,OSSe5,v2,jsons/s19.json,-0.5884720844950501,1081,959,1920,1080,6-20-2023,10-25-27,1,5,c3,c3_large_saltshaker,saltshaker,L,kitchen,0,misscaled,c3_large_saltshaker_L.png,large,c,1,568,5,7,c3_large_saltshaker_L.png,273826,1578508,39,Woman
263691,OSSe5,v2,jsons/s19.json,0.5264193916353918,1081,959,1920,1080,6-20-2023,10-25-27,1,6,c6,c6_large_toaster,toaster,R,kitchen,0,scaled,c6_large_toaster_R.png,large,m,1,839,6,5,c6_large_toaster_R.png,273826,1578508,39,Woman
263691,OSSe5,v2,jsons/s19.json,-1.0739229855407775,1081,959,1920,1080,6-20-2023,10-25-27,1,7,c9,c9_small_eraser,eraser,L,classroom,1,scaled,c9_small_eraser_L.png,small,c,1,450,7,7,c9_small_eraser_L.png,273826,1578508,39,Woman
263691,OSSe5,v2,jsons/s19.json,-0.7242337771603806,1081,959,1920,1080,6-20-2023,10-25-27,1,8,k8,k8_large_clipboard,clipboard,L,classroom,0,scaled,k8_large_clipboard_L.png,large,c,1,535,8,5,k8_large_clipboard_L.png,273826,1578508,39,Woman
263691,OSSe5,v2,jsons/s19.json,-0.8023996002101165,1081,959,1920,1080,6-20-2023,10-25-27,1,9,k10,k10_large_flashdrive,flashdrive,L,classroom,0,misscaled,k10_large_flashdrive_L.png,large,c,1,516,9,7,k10_large_flashdrive_L.png,273826,1578508,39,Woman
263691,OSSe5,v2,jsons/s19.json,-0.9093633580676496,1081,959,1920,1080,6-20-2023,10-25-27,1,10,c2,c2_large_pot,pot,R,kitchen,0,scaled,c2_large_pot_R.png,large,m,1,490,10,6,c2_large_pot_R.png,273826,1578508,39,Woman
263691,OSSe5,v2,jsons/s19.json,0.3988856803437176,1081,959,1920,1080,6-20-2023,10-25-27,1,11,k6,k6_small_toaster,toaster,L,kitchen,1,misscaled,k6_small_toaster_L.png,small,c,1,808,11,1,k6_small_toaster_L.png,273826,1578508,39,Woman
263691,OSSe5,v2,jsons/s19.json,0.15204623913402565,1081,959,1920,1080,6-20-2023,10-25-27,1,12,k3,k3_small_saltshaker,saltshaker,L,kitchen,1,scaled,k3_small_saltshaker_L.png,small,c,1,748,12,5,k3_small_saltshaker_L.png,273826,1578508,39,Woman
263691,OSSe5,v2,jsons/s19.json,-0.024855360399586877,1081,959,1920,1080,6-20-2023,10-25-27,1,13,k7,k7_large_binderclip,binderclip,R,classroom,0,misscaled,k7_large_binderclip_R.png,large,m,1,705,13,7,k7_large_binderclip_R.png,273826,1578508,39,Woman
263691,OSSe5,v2,jsons/s19.json,-0.49796428938482973,1081,959,1920,1080,6-20-2023,10-25-27,1,14,c1,c1_large_notebook,notebook,R,classroom,1,scaled,c1_large_notebook_R.png,large,m,1,590,14,6,c1_large_notebook_R.png,273826,1578508,39,Woman
263691,OSSe5,v2,jsons/s19.json,-0.37454456877998377,1081,959,1920,1080,6-20-2023,10-25-27,1,15,k9,k9_large_eraser,eraser,R,classroom,0,misscaled,k9_large_eraser_R.png,large,m,1,620,15,7,k9_large_eraser_R.png,273826,1578508,39,Woman
263691,OSSe5,v2,jsons/s19.json,2.752088353209447,1081,959,1920,1080,6-20-2023,10-25-27,1,16,c10,c10_small_flashdrive,flashdrive,R,classroom,1,scaled,c10_small_flashdrive_R.png,small,m,1,1380,16,6,c10_small_flashdrive_R.png,273826,1578508,39,Woman
263691,OSSe5,v2,jsons/s19.json,0.08210839745794629,1081,959,1920,1080,6-20-2023,10-25-27,1,17,k0,k0_small_laptop,laptop,L,classroom,0,misscaled,k0_small_laptop_L.png,small,c,1,731,17,1,k0_small_laptop_L.png,273826,1578508,39,Woman
263691,OSSe5,v2,jsons/s19.json,-0.6625239168579576,1081,959,1920,1080,6-20-2023,10-25-27,1,18,c0,c0_large_laptop,laptop,R,classroom,1,scaled,c0_large_laptop_R.png,large,m,1,550,18,3,c0_large_laptop_R.png,273826,1578508,39,Woman
263691,OSSe5,v2,jsons/s19.json,0.024512527842351507,1081,959,1920,1080,6-20-2023,10-25-27,1,19,c8,c8_small_clipboard,clipboard,L,classroom,1,misscaled,c8_small_clipboard_L.png,small,c,1,717,19,4,c8_small_clipboard_L.png,273826,1578508,39,Woman
263691,OSSe5,v2,jsons/s19.json,-0.8641094605125395,1081,959,1920,1080,6-20-2023,10-25-27,1,20,k2,k2_small_pot,pot,R,kitchen,1,misscaled,k2_small_pot_R.png,small,m,1,501,20,2,k2_small_pot_R.png,273826,1578508,39,Woman
263691,OSSe5,v2,jsons/s19.json,0.9830723578733218,1081,959,1920,1080,6-20-2023,10-25-27,1,21,c5,c5_large_spoon,spoon,R,kitchen,0,misscaled,c5_large_spoon_R.png,large,m,1,950,21,7,c5_large_spoon_R.png,273826,1578508,39,Woman
263691,OSSe5,v2,jsons/s19.json,0.9295904789445552,1081,959,1920,1080,6-20-2023,10-25-27,1,22,c7,c7_small_binderclip,binderclip,L,classroom,1,scaled,c7_small_binderclip_L.png,small,c,1,937,22,6,c7_small_binderclip_L.png,273826,1578508,39,Woman
263691,OSSe5,v2,jsons/s19.json,-0.275808792296107,1081,959,1920,1080,6-20-2023,10-25-27,1,23,k5,k5_small_spoon,spoon,R,kitchen,1,scaled,k5_small_spoon_R.png,small,m,1,644,23,7,k5_small_spoon_R.png,273826,1578508,39,Woman
409164,OSSe5,v2,jsons/s3.json,-0.4451514974362585,1707,781,1366,768,6-20-2023,10-23-38,2,0,c10,c10_large_pot,pot,R,kitchen,0,scaled,c10_large_pot_R.png,large,m,1,1324,0,4,c10_large_pot_R.png,336798,485679,30,Man
409164,OSSe5,v2,jsons/s3.json,1.5386973808932585,1707,781,1366,768,6-20-2023,10-23-38,2,1,k3,k3_small_binderclip,binderclip,L,classroom,0,scaled,k3_small_binderclip_L.png,small,c,1,2542,1,4,k3_small_binderclip_L.png,336798,485679,30,Man
409164,OSSe5,v2,jsons/s3.json,-1.0934042507820283,1707,781,1366,768,6-20-2023,10-23-38,2,2,c7,c7_large_kettle,kettle,L,kitchen,0,scaled,c7_large_kettle_L.png,large,m,0,926,2,4,c7_large_kettle_L.png,336798,485679,30,Man
409164,OSSe5,v2,jsons/s3.json,0.5744621296854802,1707,781,1366,768,6-20-2023,10-23-38,2,3,k5,k5_small_eraser,eraser,L,classroom,0,scaled,k5_small_eraser_L.png,small,c,1,1950,3,4,k5_small_eraser_L.png,336798,485679,30,Man
409164,OSSe5,v2,jsons/s3.json,-0.3588263820409675,1707,781,1366,768,6-20-2023,10-23-38,2,4,c3,c3_large_binderclip,binderclip,L,classroom,1,misscaled,c3_large_binderclip_L.png,large,c,1,1377,4,7,c3_large_binderclip_L.png,336798,485679,30,Man
409164,OSSe5,v2,jsons/s3.json,3.001338015326679,1707,781,1366,768,6-20-2023,10-23-38,2,5,c5,c5_large_eraser,eraser,L,classroom,1,misscaled,c5_large_eraser_L.png,large,c,1,3440,5,7,c5_large_eraser_L.png,336798,485679,30,Man
409164,OSSe5,v2,jsons/s3.json,-0.09007838128204282,1707,781,1366,768,6-20-2023,10-23-38,2,6,k4,k4_small_clipboard,clipboard,L,classroom,0,misscaled,k4_small_clipboard_L.png,small,c,1,1542,6,4,k4_small_clipboard_L.png,336798,485679,30,Man
409164,OSSe5,v2,jsons/s3.json,-0.961473414045829,1707,781,1366,768,6-20-2023,10-23-38,2,7,c2,c2_small_toaster,toaster,R,kitchen,0,misscaled,c2_small_toaster_R.png,small,m,1,1007,7,1,c2_small_toaster_R.png,336798,485679,30,Man
409164,OSSe5,v2,jsons/s3.json,2.0533905217406536,1707,781,1366,768,6-20-2023,10-23-38,2,8,k10,k10_small_pot,pot,L,kitchen,1,misscaled,k10_small_pot_L.png,small,c,1,2858,8,1,k10_small_pot_L.png,336798,485679,30,Man
409164,OSSe5,v2,jsons/s3.json,-0.09496470856856871,1707,781,1366,768,6-20-2023,10-23-38,2,9,k2,k2_large_toaster,toaster,L,kitchen,1,scaled,k2_large_toaster_L.png,large,c,1,1539,9,4,k2_large_toaster_L.png,336798,485679,30,Man
409164,OSSe5,v2,jsons/s3.json,-0.653634794994697,1707,781,1366,768,6-20-2023,10-23-38,2,10,k1,k1_large_spoon,spoon,R,kitchen,1,misscaled,k1_large_spoon_R.png,large,m,1,1196,10,1,k1_large_spoon_R.png,336798,485679,30,Man
409164,OSSe5,v2,jsons/s3.json,-0.11939634500119824,1707,781,1366,768,6-20-2023,10-23-38,2,11,k0,k0_large_sponge,sponge,R,kitchen,1,misscaled,k0_large_sponge_R.png,large,m,1,1524,11,5,k0_large_sponge_R.png,336798,485679,30,Man
409164,OSSe5,v2,jsons/s3.json,0.11351858898986984,1707,781,1366,768,6-20-2023,10-23-38,2,12,c4,c4_large_clipboard,clipboard,R,classroom,1,scaled,c4_large_clipboard_R.png,large,m,1,1667,12,7,c4_large_clipboard_R.png,336798,485679,30,Man
409164,OSSe5,v2,jsons/s3.json,-0.318106987986585,1707,781,1366,768,6-20-2023,10-23-38,2,13,k8,k8_small_laptop,laptop,L,classroom,0,misscaled,k8_small_laptop_L.png,small,c,1,1402,13,1,k8_small_laptop_L.png,336798,485679,30,Man
409164,OSSe5,v2,jsons/s3.json,-0.42071986100362896,1707,781,1366,768,6-20-2023,10-23-38,2,14,c11,c11_large_saltshaker,saltshaker,R,kitchen,0,misscaled,c11_large_saltshaker_R.png,large,m,1,1339,14,7,c11_large_saltshaker_R.png,336798,485679,30,Man
409164,OSSe5,v2,jsons/s3.json,0.23241921962866685,1707,781,1366,768,6-20-2023,10-23-38,2,16,c6,c6_large_flashdrive,flashdrive,L,classroom,1,misscaled,c6_large_flashdrive_L.png,large,c,1,1740,16,7,c6_large_flashdrive_L.png,336798,485679,30,Man
409164,OSSe5,v2,jsons/s3.json,-0.8083684924013507,1707,781,1366,768,6-20-2023,10-23-38,2,17,c1,c1_small_spoon,spoon,R,kitchen,0,scaled,c1_small_spoon_R.png,small,m,1,1101,17,4,c1_small_spoon_R.png,336798,485679,30,Man
409164,OSSe5,v2,jsons/s3.json,-0.09007838128204282,1707,781,1366,768,6-20-2023,10-23-38,2,18,k11,k11_small_saltshaker,saltshaker,L,kitchen,1,scaled,k11_small_saltshaker_L.png,small,c,1,1542,18,2,k11_small_saltshaker_L.png,336798,485679,30,Man
409164,OSSe5,v2,jsons/s3.json,-0.9370417776131995,1707,781,1366,768,6-20-2023,10-23-38,2,19,c9,c9_large_notebook,notebook,R,classroom,1,scaled,c9_large_notebook_R.png,large,m,1,1022,19,4,c9_large_notebook_R.png,336798,485679,30,Man
409164,OSSe5,v2,jsons/s3.json,0.5435153902041494,1707,781,1366,768,6-20-2023,10-23-38,2,20,k6,k6_small_flashdrive,flashdrive,R,classroom,0,scaled,k6_small_flashdrive_R.png,small,m,1,1931,20,4,k6_small_flashdrive_R.png,336798,485679,30,Man
409164,OSSe5,v2,jsons/s3.json,-0.39791700033317473,1707,781,1366,768,6-20-2023,10-23-38,2,21,c8,c8_large_laptop,laptop,R,classroom,1,scaled,c8_large_laptop_R.png,large,m,1,1353,21,4,c8_large_laptop_R.png,336798,485679,30,Man
409164,OSSe5,v2,jsons/s3.json,-0.756247668011741,1707,781,1366,768,6-20-2023,10-23-38,2,22,c0,c0_small_sponge,sponge,R,kitchen,0,scaled,c0_small_sponge_R.png,small,m,1,1133,22,1,c0_small_sponge_R.png,336798,485679,30,Man
409164,OSSe5,v2,jsons/s3.json,-0.5119313036854458,1707,781,1366,768,6-20-2023,10-23-38,2,23,k9,k9_small_notebook,notebook,R,classroom,0,misscaled,k9_small_notebook_R.png,small,m,1,1283,23,1,k9_small_notebook_R.png,336798,485679,30,Man
991456,OSSe5,v2,jsons/s23.json,0.8672329012860177,1732,850,1732,993,6-20-2023,9-43-27,1,0,c11,c11_small_binderclip,binderclip,L,classroom,1,scaled,c11_small_binderclip_L.png,small,c,1,1564,0,5,c11_small_binderclip_L.png,278190,388588,33,Man
991456,OSSe5,v2,jsons/s23.json,0.2622295869539073,1732,850,1732,993,6-20-2023,9-43-27,1,1,k1,k1_small_eraser,eraser,L,classroom,0,scaled,k1_small_eraser_L.png,small,c,1,1400,1,4,k1_small_eraser_L.png,278190,388588,33,Man
991456,OSSe5,v2,jsons/s23.json,-1.3203705462685034,1732,850,1732,993,6-20-2023,9-43-27,1,2,c3,c3_large_kettle,kettle,L,kitchen,0,scaled,c3_large_kettle_L.png,large,c,1,971,2,4,c3_large_kettle_L.png,278190,388588,33,Man
991456,OSSe5,v2,jsons/s23.json,-0.3722860841748914,1732,850,1732,993,6-20-2023,9-43-27,1,3,k6,k6_small_pot,pot,R,kitchen,1,misscaled,k6_small_pot_R.png,small,m,1,1228,3,1,k6_small_pot_R.png,278190,388588,33,Man
991456,OSSe5,v2,jsons/s23.json,-0.4903355113616446,1732,850,1732,993,6-20-2023,9-43-27,1,4,k5,k5_small_notebook,notebook,R,classroom,0,misscaled,k5_small_notebook_R.png,small,m,1,1196,4,1,k5_small_notebook_R.png,278190,388588,33,Man
991456,OSSe5,v2,jsons/s23.json,-0.5825616263512956,1732,850,1732,993,6-20-2023,9-43-27,1,5,c2,c2_large_flashdrive,flashdrive,L,classroom,1,misscaled,c2_large_flashdrive_L.png,large,c,1,1171,5,7,c2_large_flashdrive_L.png,278190,388588,33,Man
991456,OSSe5,v2,jsons/s23.json,-1.3203705462685034,1732,850,1732,993,6-20-2023,9-43-27,1,6,k8,k8_small_sponge,sponge,R,kitchen,1,scaled,k8_small_sponge_R.png,small,m,1,971,6,4,k8_small_sponge_R.png,278190,388588,33,Man
991456,OSSe5,v2,jsons/s23.json,-0.5309150019570911,1732,850,1732,993,6-20-2023,9-43-27,1,7,k0,k0_small_clipboard,clipboard,L,classroom,0,misscaled,k0_small_clipboard_L.png,small,c,1,1185,7,1,k0_small_clipboard_L.png,278190,388588,33,Man
991456,OSSe5,v2,jsons/s23.json,-0.5235369127579189,1732,850,1732,993,6-20-2023,9-43-27,1,8,c6,c6_large_pot,pot,R,kitchen,0,scaled,c6_large_pot_R.png,large,m,1,1187,8,5,c6_large_pot_R.png,278190,388588,33,Man
991456,OSSe5,v2,jsons/s23.json,0.5278407981241021,1732,850,1732,993,6-20-2023,9-43-27,1,9,c5,c5_large_notebook,notebook,R,classroom,1,scaled,c5_large_notebook_R.png,large,c,0,1472,9,4,c5_large_notebook_R.png,278190,388588,33,Man
991456,OSSe5,v2,jsons/s23.json,-0.04027207021214787,1732,850,1732,993,6-20-2023,9-43-27,1,10,c1,c1_large_eraser,eraser,L,classroom,1,misscaled,c1_large_eraser_L.png,large,m,0,1318,10,7,c1_large_eraser_L.png,278190,388588,33,Man
991456,OSSe5,v2,jsons/s23.json,-0.5862506709508817,1732,850,1732,993,6-20-2023,9-43-27,1,11,c10,c10_large_toaster,toaster,L,kitchen,0,scaled,c10_large_toaster_L.png,large,c,1,1170,11,5,c10_large_toaster_L.png,278190,388588,33,Man
991456,OSSe5,v2,jsons/s23.json,-0.6194520723471559,1732,850,1732,993,6-20-2023,9-43-27,1,12,k9,k9_small_spoon,spoon,R,kitchen,1,scaled,k9_small_spoon_R.png,small,m,1,1161,12,4,k9_small_spoon_R.png,278190,388588,33,Man
991456,OSSe5,v2,jsons/s23.json,1.5017485724148163,1732,850,1732,993,6-20-2023,9-43-27,1,13,c8,c8_large_sponge,sponge,R,kitchen,0,misscaled,c8_large_sponge_R.png,large,m,1,1736,13,7,c8_large_sponge_R.png,278190,388588,33,Man
991456,OSSe5,v2,jsons/s23.json,2.5494372386972515,1732,850,1732,993,6-20-2023,9-43-27,1,14,k4,k4_small_laptop,laptop,R,classroom,0,misscaled,k4_small_laptop_R.png,small,c,0,2020,14,1,k4_small_laptop_R.png,278190,388588,33,Man
991456,OSSe5,v2,jsons/s23.json,-0.9699113093078296,1732,850,1732,993,6-20-2023,9-43-27,1,15,c7,c7_large_saltshaker,saltshaker,R,kitchen,0,misscaled,c7_large_saltshaker_R.png,large,m,1,1066,15,6,c7_large_saltshaker_R.png,278190,388588,33,Man
991456,OSSe5,v2,jsons/s23.json,-0.5014026451604028,1732,850,1732,993,6-20-2023,9-43-27,1,16,c0,c0_large_clipboard,clipboard,L,classroom,1,scaled,c0_large_clipboard_L.png,large,c,1,1193,16,5,c0_large_clipboard_L.png,278190,388588,33,Man
991456,OSSe5,v2,jsons/s23.json,-0.18045576499641736,1732,850,1732,993,6-20-2023,9-43-27,1,17,c4,c4_large_laptop,laptop,L,classroom,1,scaled,c4_large_laptop_L.png,large,c,1,1280,17,4,c4_large_laptop_L.png,278190,388588,33,Man
991456,OSSe5,v2,jsons/s23.json,0.8450986336885015,1732,850,1732,993,6-20-2023,9-43-27,1,18,k3,k3_small_kettle,kettle,R,kitchen,1,misscaled,k3_small_kettle_R.png,small,m,1,1558,18,1,k3_small_kettle_R.png,278190,388588,33,Man
991456,OSSe5,v2,jsons/s23.json,-1.0400031566999643,1732,850,1732,993,6-20-2023,9-43-27,1,19,k11,k11_large_binderclip,binderclip,L,classroom,0,misscaled,k11_large_binderclip_L.png,large,c,1,1047,19,7,k11_large_binderclip_L.png,278190,388588,33,Man
991456,OSSe5,v2,jsons/s23.json,-0.335395638179031,1732,850,1732,993,6-20-2023,9-43-27,1,20,c9,c9_large_spoon,spoon,L,kitchen,0,misscaled,c9_large_spoon_L.png,large,c,1,1238,20,6,c9_large_spoon_L.png,278190,388588,33,Man
991456,OSSe5,v2,jsons/s23.json,2.01083672715769,1732,850,1732,993,6-20-2023,9-43-27,1,21,k10,k10_small_toaster,toaster,R,kitchen,1,misscaled,k10_small_toaster_R.png,small,c,0,1874,21,1,k10_small_toaster_R.png,278190,388588,33,Man
991456,OSSe5,v2,jsons/s23.json,0.18107060576301445,1732,850,1732,993,6-20-2023,9-43-27,1,22,k7,k7_small_saltshaker,saltshaker,R,kitchen,1,scaled,k7_small_saltshaker_R.png,small,m,1,1378,22,4,k7_small_saltshaker_R.png,278190,388588,33,Man
991456,OSSe5,v2,jsons/s23.json,0.6680244929083716,1732,850,1732,993,6-20-2023,9-43-27,1,23,k2,k2_small_flashdrive,flashdrive,L,classroom,0,scaled,k2_small_flashdrive_L.png,small,c,1,1510,23,4,k2_small_flashdrive_L.png,278190,388588,33,Man
377232,OSSe5,v2,jsons/s13.json,-0.6611180885834947,1920,937,1920,1080,6-20-2023,10-36-10,1,0,k10,k10_large_sponge,sponge,L,kitchen,1,misscaled,k10_large_sponge_L.png,large,c,1,1128,0,7,k10_large_sponge_L.png,521236,581631,50,Man
377232,OSSe5,v2,jsons/s13.json,-0.46073355124283005,1920,937,1920,1080,6-20-2023,10-36-10,1,1,c10,c10_small_sponge,sponge,R,kitchen,0,scaled,c10_small_sponge_R.png,small,m,1,1307,1,4,c10_small_sponge_R.png,521236,581631,50,Man
377232,OSSe5,v2,jsons/s13.json,-0.8838919597052391,1920,937,1920,1080,6-20-2023,10-36-10,1,2,c0,c0_large_toaster,toaster,R,kitchen,0,scaled,c0_large_toaster_R.png,large,m,1,929,2,6,c0_large_toaster_R.png,521236,581631,50,Man
377232,OSSe5,v2,jsons/s13.json,0.002725658025522864,1920,937,1920,1080,6-20-2023,10-36-10,1,3,c5,c5_small_kettle,kettle,R,kitchen,0,misscaled,c5_small_kettle_R.png,small,m,1,1721,3,1,c5_small_kettle_R.png,521236,581631,50,Man
377232,OSSe5,v2,jsons/s13.json,-0.46856981806620795,1920,937,1920,1080,6-20-2023,10-36-10,1,4,k0,k0_small_toaster,toaster,L,kitchen,1,misscaled,k0_small_toaster_L.png,small,c,1,1300,4,1,k0_small_toaster_L.png,521236,581631,50,Man
377232,OSSe5,v2,jsons/s13.json,-0.4092380835463464,1920,937,1920,1080,6-20-2023,10-36-10,1,5,k5,k5_large_kettle,kettle,R,kitchen,1,scaled,k5_large_kettle_R.png,large,m,1,1353,5,6,k5_large_kettle_R.png,521236,581631,50,Man
377232,OSSe5,v2,jsons/s13.json,-0.01630527568839501,1920,937,1920,1080,6-20-2023,10-36-10,1,6,c6,c6_small_laptop,laptop,L,classroom,1,misscaled,c6_small_laptop_L.png,small,c,1,1704,6,1,c6_small_laptop_L.png,521236,581631,50,Man
377232,OSSe5,v2,jsons/s13.json,0.18855712840848562,1920,937,1920,1080,6-20-2023,10-36-10,1,7,k6,k6_large_laptop,laptop,L,classroom,0,scaled,k6_large_laptop_L.png,large,c,1,1887,7,4,k6_large_laptop_L.png,521236,581631,50,Man
377232,OSSe5,v2,jsons/s13.json,-0.5961890206183631,1920,937,1920,1080,6-20-2023,10-36-10,1,8,k9,k9_large_saltshaker,saltshaker,L,kitchen,1,misscaled,k9_large_saltshaker_L.png,large,c,1,1186,8,7,k9_large_saltshaker_L.png,521236,581631,50,Man
377232,OSSe5,v2,jsons/s13.json,2.401742772668229,1920,937,1920,1080,6-20-2023,10-36-10,1,9,k1,k1_large_binderclip,binderclip,L,classroom,0,misscaled,k1_large_binderclip_L.png,large,c,1,3864,9,7,k1_large_binderclip_L.png,521236,581631,50,Man
377232,OSSe5,v2,jsons/s13.json,-0.26482688065838134,1920,937,1920,1080,6-20-2023,10-36-10,1,10,c3,c3_small_eraser,eraser,R,classroom,1,scaled,c3_small_eraser_R.png,small,m,1,1482,10,5,c3_small_eraser_R.png,521236,581631,50,Man
377232,OSSe5,v2,jsons/s13.json,-0.3331143486906749,1920,937,1920,1080,6-20-2023,10-36-10,1,11,c1,c1_small_binderclip,binderclip,L,classroom,1,scaled,c1_small_binderclip_L.png,small,c,1,1421,11,6,c1_small_binderclip_L.png,521236,581631,50,Man
377232,OSSe5,v2,jsons/s13.json,2.576379576160652,1920,937,1920,1080,6-20-2023,10-36-10,1,12,c4,c4_small_flashdrive,flashdrive,R,classroom,1,scaled,c4_small_flashdrive_R.png,small,m,1,4020,12,7,c4_small_flashdrive_R.png,521236,581631,50,Man
377232,OSSe5,v2,jsons/s13.json,1.3606387518480159,1920,937,1920,1080,6-20-2023,10-36-10,1,13,c11,c11_small_spoon,spoon,R,kitchen,0,scaled,c11_small_spoon_R.png,small,m,1,2934,13,7,c11_small_spoon_R.png,521236,581631,50,Man
377232,OSSe5,v2,jsons/s13.json,1.2296611492286986,1920,937,1920,1080,6-20-2023,10-36-10,1,15,k2,k2_large_clipboard,clipboard,R,classroom,0,scaled,k2_large_clipboard_R.png,large,m,1,2817,15,5,k2_large_clipboard_R.png,521236,581631,50,Man
377232,OSSe5,v2,jsons/s13.json,-0.5402156861656635,1920,937,1920,1080,6-20-2023,10-36-10,1,16,c8,c8_small_pot,pot,L,kitchen,0,misscaled,c8_small_pot_L.png,small,c,1,1236,16,3,c8_small_pot_L.png,521236,581631,50,Man
377232,OSSe5,v2,jsons/s13.json,-0.7372418234391662,1920,937,1920,1080,6-20-2023,10-36-10,1,17,k7,k7_large_notebook,notebook,R,classroom,0,scaled,k7_large_notebook_R.png,large,m,1,1060,17,6,k7_large_notebook_R.png,521236,581631,50,Man
377232,OSSe5,v2,jsons/s13.json,-0.23460128005392356,1920,937,1920,1080,6-20-2023,10-36-10,1,18,c7,c7_small_notebook,notebook,R,classroom,1,misscaled,c7_small_notebook_R.png,small,m,1,1509,18,4,c7_small_notebook_R.png,521236,581631,50,Man
377232,OSSe5,v2,jsons/s13.json,-0.6633570219616026,1920,937,1920,1080,6-20-2023,10-36-10,1,19,c9,c9_small_saltshaker,saltshaker,L,kitchen,0,scaled,c9_small_saltshaker_L.png,small,c,1,1126,19,6,c9_small_saltshaker_L.png,521236,581631,50,Man
377232,OSSe5,v2,jsons/s13.json,0.8333699413035853,1920,937,1920,1080,6-20-2023,10-36-10,1,20,k4,k4_large_flashdrive,flashdrive,L,classroom,0,misscaled,k4_large_flashdrive_L.png,large,c,1,2463,20,7,k4_large_flashdrive_L.png,521236,581631,50,Man
377232,OSSe5,v2,jsons/s13.json,-0.8726972928146993,1920,937,1920,1080,6-20-2023,10-36-10,1,21,k3,k3_large_eraser,eraser,L,classroom,0,misscaled,k3_large_eraser_L.png,large,c,1,939,21,7,k3_large_eraser_L.png,521236,581631,50,Man
377232,OSSe5,v2,jsons/s13.json,-0.7002994227003845,1920,937,1920,1080,6-20-2023,10-36-10,1,22,k8,k8_large_pot,pot,L,kitchen,1,scaled,k8_large_pot_L.png,large,c,1,1093,22,7,k8_large_pot_L.png,521236,581631,50,Man
377232,OSSe5,v2,jsons/s13.json,-0.750675423707814,1920,937,1920,1080,6-20-2023,10-36-10,1,23,k11,k11_large_spoon,spoon,R,kitchen,1,misscaled,k11_large_spoon_R.png,large,m,1,1048,23,7,k11_large_spoon_R.png,521236,581631,50,Man
810028,OSSe5,v2,jsons/s2.json,-0.5511723631071608,1366,615,1366,768,6-20-2023,11-24-33,1,0,c3,c3_large_clipboard,clipboard,L,classroom,1,scaled,c3_large_clipboard_L.png,large,c,1,1982,0,4,c3_large_clipboard_L.png,305029,401040,26,Woman
810028,OSSe5,v2,jsons/s2.json,-0.20626030380625454,1366,615,1366,768,6-20-2023,11-24-33,1,1,k7,k7_small_laptop,laptop,R,classroom,0,misscaled,k7_small_laptop_R.png,small,m,1,2300,1,4,k7_small_laptop_R.png,305029,401040,26,Woman
810028,OSSe5,v2,jsons/s2.json,-0.9611621694459739,1366,615,1366,768,6-20-2023,11-24-33,1,2,c1,c1_small_toaster,toaster,R,kitchen,0,misscaled,c1_small_toaster_R.png,small,m,1,1604,2,3,c1_small_toaster_R.png,305029,401040,26,Woman
810028,OSSe5,v2,jsons/s2.json,-1.0132243670762993,1366,615,1366,768,6-20-2023,11-24-33,1,3,k11,k11_small_sponge,sponge,R,kitchen,1,scaled,k11_small_sponge_R.png,small,m,1,1556,3,4,k11_small_sponge_R.png,305029,401040,26,Woman
810028,OSSe5,v2,jsons/s2.json,-0.19649864175056853,1366,615,1366,768,6-20-2023,11-24-33,1,4,k0,k0_large_spoon,spoon,L,kitchen,1,misscaled,k0_large_spoon_L.png,large,c,1,2309,4,4,k0_large_spoon_L.png,305029,401040,26,Woman
810028,OSSe5,v2,jsons/s2.json,-0.04031204885959212,1366,615,1366,768,6-20-2023,11-24-33,1,5,c6,c6_large_kettle,kettle,L,kitchen,0,scaled,c6_large_kettle_L.png,large,c,1,2453,5,4,c6_large_kettle_L.png,305029,401040,26,Woman
810028,OSSe5,v2,jsons/s2.json,0.010665519653434897,1366,615,1366,768,6-20-2023,11-24-33,1,6,k8,k8_small_notebook,notebook,L,classroom,0,misscaled,k8_small_notebook_L.png,small,c,1,2500,6,4,k8_small_notebook_L.png,305029,401040,26,Woman
810028,OSSe5,v2,jsons/s2.json,-0.07285092237854554,1366,615,1366,768,6-20-2023,11-24-33,1,7,k9,k9_small_pot,pot,L,kitchen,1,misscaled,k9_small_pot_L.png,small,c,1,2423,7,4,k9_small_pot_L.png,305029,401040,26,Woman
810028,OSSe5,v2,jsons/s2.json,2.542189879428011,1366,615,1366,768,6-20-2023,11-24-33,1,8,k5,k5_small_flashdrive,flashdrive,L,classroom,0,scaled,k5_small_flashdrive_L.png,small,c,1,4834,8,4,k5_small_flashdrive_L.png,305029,401040,26,Woman
810028,OSSe5,v2,jsons/s2.json,-0.5240566351746996,1366,615,1366,768,6-20-2023,11-24-33,1,9,c11,c11_large_sponge,sponge,R,kitchen,0,misscaled,c11_large_sponge_R.png,large,m,1,2007,9,4,c11_large_sponge_R.png,305029,401040,26,Woman
810028,OSSe5,v2,jsons/s2.json,-1.1878496549613493,1366,615,1366,768,6-20-2023,11-24-33,1,10,c0,c0_small_spoon,spoon,R,kitchen,0,scaled,c0_small_spoon_R.png,small,m,1,1395,10,4,c0_small_spoon_R.png,305029,401040,26,Woman
810028,OSSe5,v2,jsons/s2.json,-0.4980255363595369,1366,615,1366,768,6-20-2023,11-24-33,1,11,c5,c5_large_flashdrive,flashdrive,L,classroom,1,misscaled,c5_large_flashdrive_L.png,large,c,1,2031,11,4,c5_large_flashdrive_L.png,305029,401040,26,Woman
810028,OSSe5,v2,jsons/s2.json,0.430416988047934,1366,615,1366,768,6-20-2023,11-24-33,1,12,k2,k2_small_binderclip,binderclip,L,classroom,0,scaled,k2_small_binderclip_L.png,small,c,1,2887,12,4,k2_small_binderclip_L.png,305029,401040,26,Woman
810028,OSSe5,v2,jsons/s2.json,0.40655514746736815,1366,615,1366,768,6-20-2023,11-24-33,1,13,c8,c8_large_notebook,notebook,R,classroom,1,scaled,c8_large_notebook_R.png,large,m,1,2865,13,4,c8_large_notebook_R.png,305029,401040,26,Woman
810028,OSSe5,v2,jsons/s2.json,-0.711697472467331,1366,615,1366,768,6-20-2023,11-24-33,1,14,c9,c9_large_pot,pot,L,kitchen,0,scaled,c9_large_pot_L.png,large,c,1,1834,14,4,c9_large_pot_L.png,305029,401040,26,Woman
810028,OSSe5,v2,jsons/s2.json,-0.8006370600858036,1366,615,1366,768,6-20-2023,11-24-33,1,15,c4,c4_large_eraser,eraser,R,classroom,1,misscaled,c4_large_eraser_R.png,large,m,1,1752,15,4,c4_large_eraser_R.png,305029,401040,26,Woman
810028,OSSe5,v2,jsons/s2.json,-0.3440082017031574,1366,615,1366,768,6-20-2023,11-24-33,1,16,k4,k4_small_eraser,eraser,R,classroom,0,scaled,k4_small_eraser_R.png,small,m,1,2173,16,4,k4_small_eraser_R.png,305029,401040,26,Woman
810028,OSSe5,v2,jsons/s2.json,0.5291182377220927,1366,615,1366,768,6-20-2023,11-24-33,1,17,c10,c10_large_saltshaker,saltshaker,R,kitchen,0,misscaled,c10_large_saltshaker_R.png,large,m,1,2978,17,4,c10_large_saltshaker_R.png,305029,401040,26,Woman
810028,OSSe5,v2,jsons/s2.json,-1.0370862076568652,1366,615,1366,768,6-20-2023,11-24-33,1,18,k1,k1_large_toaster,toaster,L,kitchen,1,scaled,k1_large_toaster_L.png,large,c,1,1534,18,4,k1_large_toaster_L.png,305029,401040,26,Woman
810028,OSSe5,v2,jsons/s2.json,0.2286759722304228,1366,615,1366,768,6-20-2023,11-24-33,1,19,c2,c2_large_binderclip,binderclip,R,classroom,1,misscaled,c2_large_binderclip_R.png,large,m,1,2701,19,4,c2_large_binderclip_R.png,305029,401040,26,Woman
810028,OSSe5,v2,jsons/s2.json,2.1148460072124227,1366,615,1366,768,6-20-2023,11-24-33,1,20,k3,k3_small_clipboard,clipboard,R,classroom,0,misscaled,k3_small_clipboard_R.png,small,m,1,4440,20,4,k3_small_clipboard_R.png,305029,401040,26,Woman
810028,OSSe5,v2,jsons/s2.json,2.17233135042924,1366,615,1366,768,6-20-2023,11-24-33,1,21,k6,k6_small_kettle,kettle,R,kitchen,1,misscaled,k6_small_kettle_R.png,small,m,1,4493,21,4,k6_small_kettle_R.png,305029,401040,26,Woman
810028,OSSe5,v2,jsons/s2.json,-0.10430516678020052,1366,615,1366,768,6-20-2023,11-24-33,1,22,k10,k10_small_saltshaker,saltshaker,L,kitchen,1,scaled,k10_small_saltshaker_L.png,small,c,1,2394,22,4,k10_small_saltshaker_L.png,305029,401040,26,Woman
810028,OSSe5,v2,jsons/s2.json,-0.18565235057758406,1366,615,1366,768,6-20-2023,11-24-33,1,23,c7,c7_large_laptop,laptop,L,classroom,1,scaled,c7_large_laptop_L.png,large,c,1,2319,23,4,c7_large_laptop_L.png,305029,401040,26,Woman
826280,OSSe5,v2,jsons/s21.json,0.7995170523720512,1397,634,1396,785,6-20-2023,10-32-48,1,0,k11,k11_large_eraser,eraser,R,classroom,0,misscaled,k11_large_eraser_R.png,large,m,1,1918,0,7,k11_large_eraser_R.png,306769,420270,32,Woman
826280,OSSe5,v2,jsons/s21.json,-0.5160664814272503,1397,634,1396,785,6-20-2023,10-32-48,1,1,c7,c7_large_spoon,spoon,R,kitchen,0,misscaled,c7_large_spoon_R.png,large,m,1,789,1,7,c7_large_spoon_R.png,306769,420270,32,Woman
826280,OSSe5,v2,jsons/s21.json,-0.7864078276109864,1397,634,1396,785,6-20-2023,10-32-48,1,2,c0,c0_large_flashdrive,flashdrive,R,classroom,1,misscaled,c0_large_flashdrive_R.png,large,m,1,557,2,7,c0_large_flashdrive_R.png,306769,420270,32,Woman
826280,OSSe5,v2,jsons/s21.json,-0.6174444862461513,1397,634,1396,785,6-20-2023,10-32-48,1,3,c6,c6_large_sponge,sponge,L,kitchen,0,misscaled,c6_large_sponge_L.png,large,c,1,702,3,4,c6_large_sponge_L.png,306769,420270,32,Woman
826280,OSSe5,v2,jsons/s21.json,-0.5650075872018923,1397,634,1396,785,6-20-2023,10-32-48,1,4,c8,c8_large_toaster,toaster,L,kitchen,0,scaled,c8_large_toaster_L.png,large,c,1,747,4,4,c8_large_toaster_L.png,306769,420270,32,Woman
826280,OSSe5,v2,jsons/s21.json,-0.003350135216716556,1397,634,1396,785,6-20-2023,10-32-48,1,5,k4,k4_small_pot,pot,R,kitchen,1,misscaled,k4_small_pot_R.png,small,m,1,1229,5,4,k4_small_pot_R.png,306769,420270,32,Woman
826280,OSSe5,v2,jsons/s21.json,-0.29932729871097924,1397,634,1396,785,6-20-2023,10-32-48,1,6,k1,k1_small_kettle,kettle,L,kitchen,1,misscaled,k1_small_kettle_L.png,small,c,1,975,6,1,k1_small_kettle_L.png,306769,420270,32,Woman
826280,OSSe5,v2,jsons/s21.json,-0.2165935246633704,1397,634,1396,785,6-20-2023,10-32-48,1,7,c5,c5_large_saltshaker,saltshaker,L,kitchen,0,misscaled,c5_large_saltshaker_L.png,large,c,1,1046,7,4,c5_large_saltshaker_L.png,306769,420270,32,Woman
826280,OSSe5,v2,jsons/s21.json,-0.3505989333320326,1397,634,1396,785,6-20-2023,10-32-48,1,8,k2,k2_small_laptop,laptop,L,classroom,0,misscaled,k2_small_laptop_L.png,small,c,1,931,8,1,k2_small_laptop_L.png,306769,420270,32,Woman
826280,OSSe5,v2,jsons/s21.json,-0.831853140116011,1397,634,1396,785,6-20-2023,10-32-48,1,9,c1,c1_large_kettle,kettle,L,kitchen,0,scaled,c1_large_kettle_L.png,large,c,1,518,9,5,c1_large_kettle_L.png,306769,420270,32,Woman
826280,OSSe5,v2,jsons/s21.json,0.5338367638811382,1397,634,1396,785,6-20-2023,10-32-48,1,10,c9,c9_small_binderclip,binderclip,R,classroom,1,scaled,c9_small_binderclip_R.png,small,m,1,1690,10,4,c9_small_binderclip_R.png,306769,420270,32,Woman
826280,OSSe5,v2,jsons/s21.json,-0.013837515025568384,1397,634,1396,785,6-20-2023,10-32-48,1,11,k3,k3_small_notebook,notebook,R,classroom,0,misscaled,k3_small_notebook_R.png,small,m,1,1220,11,4,k3_small_notebook_R.png,306769,420270,32,Woman
826280,OSSe5,v2,jsons/s21.json,0.7622285908294668,1397,634,1396,785,6-20-2023,10-32-48,1,12,c10,c10_small_clipboard,clipboard,L,classroom,1,misscaled,c10_small_clipboard_L.png,small,c,1,1886,12,1,c10_small_clipboard_L.png,306769,420270,32,Woman
826280,OSSe5,v2,jsons/s21.json,-0.7526151593380194,1397,634,1396,785,6-20-2023,10-32-48,1,13,k9,k9_large_binderclip,binderclip,L,classroom,0,misscaled,k9_large_binderclip_L.png,large,c,1,586,13,7,k9_large_binderclip_L.png,306769,420270,32,Woman
826280,OSSe5,v2,jsons/s21.json,-0.6850298227920854,1397,634,1396,785,6-20-2023,10-32-48,1,14,k8,k8_small_toaster,toaster,L,kitchen,1,misscaled,k8_small_toaster_L.png,small,c,1,644,14,1,k8_small_toaster_L.png,306769,420270,32,Woman
826280,OSSe5,v2,jsons/s21.json,2.489150466020401,1397,634,1396,785,6-20-2023,10-32-48,1,15,c11,c11_small_eraser,eraser,R,classroom,1,scaled,c11_small_eraser_R.png,small,m,1,3368,15,4,c11_small_eraser_R.png,306769,420270,32,Woman
826280,OSSe5,v2,jsons/s21.json,0.6154052735055413,1397,634,1396,785,6-20-2023,10-32-48,1,16,k7,k7_small_spoon,spoon,R,kitchen,1,scaled,k7_small_spoon_R.png,small,m,1,1760,16,5,k7_small_spoon_R.png,306769,420270,32,Woman
826280,OSSe5,v2,jsons/s21.json,-0.69202140933132,1397,634,1396,785,6-20-2023,10-32-48,1,17,c3,c3_large_notebook,notebook,R,classroom,1,scaled,c3_large_notebook_R.png,large,m,1,638,17,5,c3_large_notebook_R.png,306769,420270,32,Woman
826280,OSSe5,v2,jsons/s21.json,-0.5102401593112216,1397,634,1396,785,6-20-2023,10-32-48,1,18,k5,k5_small_saltshaker,saltshaker,R,kitchen,1,scaled,k5_small_saltshaker_R.png,small,m,1,794,18,4,k5_small_saltshaker_R.png,306769,420270,32,Woman
826280,OSSe5,v2,jsons/s21.json,-0.8003910006894555,1397,634,1396,785,6-20-2023,10-32-48,1,19,c2,c2_large_laptop,laptop,L,classroom,1,scaled,c2_large_laptop_L.png,large,c,1,545,19,4,c2_large_laptop_L.png,306769,420270,32,Woman
826280,OSSe5,v2,jsons/s21.json,0.3963355619428586,1397,634,1396,785,6-20-2023,10-32-48,1,20,k10,k10_large_clipboard,clipboard,L,classroom,0,scaled,k10_large_clipboard_L.png,large,c,1,1572,20,4,k10_large_clipboard_L.png,306769,420270,32,Woman
826280,OSSe5,v2,jsons/s21.json,3.044981595889548,1397,634,1396,785,6-20-2023,10-32-48,1,21,k0,k0_small_flashdrive,flashdrive,R,classroom,0,scaled,k0_small_flashdrive_R.png,small,m,1,3845,21,4,k0_small_flashdrive_R.png,306769,420270,32,Woman
826280,OSSe5,v2,jsons/s21.json,-0.638419245863855,1397,634,1396,785,6-20-2023,10-32-48,1,22,c4,c4_large_pot,pot,R,kitchen,0,scaled,c4_large_pot_R.png,large,m,1,684,22,4,c4_large_pot_R.png,306769,420270,32,Woman
826280,OSSe5,v2,jsons/s21.json,-0.3622515775640902,1397,634,1396,785,6-20-2023,10-32-48,1,23,k6,k6_small_sponge,sponge,L,kitchen,1,scaled,k6_small_sponge_L.png,small,c,1,921,23,4,k6_small_sponge_L.png,306769,420270,32,Woman
230606,OSSe5,v2,jsons/s14.json,-0.641650548509466,1920,961,1920,1080,6-20-2023,10-23-22,1,0,k10,k10_large_saltshaker,saltshaker,R,kitchen,1,misscaled,k10_large_saltshaker_R.png,large,m,1,1010,0,7,k10_large_saltshaker_R.png,304012,479162,69,Woman
230606,OSSe5,v2,jsons/s14.json,-0.6591185823916214,1920,961,1920,1080,6-20-2023,10-23-22,1,1,k9,k9_large_pot,pot,R,kitchen,1,scaled,k9_large_pot_R.png,large,m,1,993,1,4,k9_large_pot_R.png,304012,479162,69,Woman
230606,OSSe5,v2,jsons/s14.json,-0.04259973949202092,1920,961,1920,1080,6-20-2023,10-23-22,1,2,k1,k1_small_toaster,toaster,L,kitchen,1,misscaled,k1_small_toaster_L.png,small,c,1,1593,2,1,k1_small_toaster_L.png,304012,479162,69,Woman
230606,OSSe5,v2,jsons/s14.json,-0.9735431922704175,1920,961,1920,1080,6-20-2023,10-23-22,1,3,c1,c1_large_toaster,toaster,R,kitchen,0,scaled,c1_large_toaster_R.png,large,m,1,687,3,4,c1_large_toaster_R.png,304012,479162,69,Woman
230606,OSSe5,v2,jsons/s14.json,-0.7464587518023981,1920,961,1920,1080,6-20-2023,10-23-22,1,4,k11,k11_large_sponge,sponge,R,kitchen,1,misscaled,k11_large_sponge_R.png,large,m,1,908,4,7,k11_large_sponge_R.png,304012,479162,69,Woman
230606,OSSe5,v2,jsons/s14.json,1.09796011987224,1920,961,1920,1080,6-20-2023,10-23-22,1,5,k4,k4_large_eraser,eraser,L,classroom,0,misscaled,k4_large_eraser_L.png,large,m,0,2703,5,7,k4_large_eraser_L.png,304012,479162,69,Woman
230606,OSSe5,v2,jsons/s14.json,-0.04670986511135159,1920,961,1920,1080,6-20-2023,10-23-22,1,6,c11,c11_small_sponge,sponge,L,kitchen,0,scaled,c11_small_sponge_L.png,small,c,1,1589,6,4,c11_small_sponge_L.png,304012,479162,69,Woman
230606,OSSe5,v2,jsons/s14.json,2.9043603295680693,1920,961,1920,1080,6-20-2023,10-23-22,1,7,k5,k5_large_flashdrive,flashdrive,L,classroom,0,misscaled,k5_large_flashdrive_L.png,large,c,1,4461,7,7,k5_large_flashdrive_L.png,304012,479162,69,Woman
230606,OSSe5,v2,jsons/s14.json,1.6723501751737009,1920,961,1920,1080,6-20-2023,10-23-22,1,8,c2,c2_small_binderclip,binderclip,R,classroom,1,scaled,c2_small_binderclip_R.png,small,m,1,3262,8,4,c2_small_binderclip_R.png,304012,479162,69,Woman
230606,OSSe5,v2,jsons/s14.json,-0.25221614607788506,1920,961,1920,1080,6-20-2023,10-23-22,1,9,k0,k0_small_spoon,spoon,R,kitchen,1,scaled,k0_small_spoon_R.png,small,m,1,1389,9,4,k0_small_spoon_R.png,304012,479162,69,Woman
230606,OSSe5,v2,jsons/s14.json,0.9592433802198298,1920,961,1920,1080,6-20-2023,10-23-22,1,10,c8,c8_small_notebook,notebook,L,classroom,1,misscaled,c8_small_notebook_L.png,small,c,1,2568,10,4,c8_small_notebook_L.png,304012,479162,69,Woman
230606,OSSe5,v2,jsons/s14.json,-0.7176878724670834,1920,961,1920,1080,6-20-2023,10-23-22,1,11,k3,k3_large_clipboard,clipboard,L,classroom,0,scaled,k3_large_clipboard_L.png,large,c,1,936,11,4,k3_large_clipboard_L.png,304012,479162,69,Woman
230606,OSSe5,v2,jsons/s14.json,-0.09192124692398895,1920,961,1920,1080,6-20-2023,10-23-22,1,12,c7,c7_small_laptop,laptop,R,classroom,1,misscaled,c7_small_laptop_R.png,small,m,1,1545,12,1,c7_small_laptop_R.png,304012,479162,69,Woman
230606,OSSe5,v2,jsons/s14.json,1.4730090826361635,1920,961,1920,1080,6-20-2023,10-23-22,1,13,k2,k2_large_binderclip,binderclip,R,classroom,0,misscaled,k2_large_binderclip_R.png,large,m,1,3068,13,7,k2_large_binderclip_R.png,304012,479162,69,Woman
230606,OSSe5,v2,jsons/s14.json,-0.2799594940083671,1920,961,1920,1080,6-20-2023,10-23-22,1,14,c3,c3_small_clipboard,clipboard,R,classroom,1,misscaled,c3_small_clipboard_R.png,small,m,1,1362,14,1,c3_small_clipboard_R.png,304012,479162,69,Woman
230606,OSSe5,v2,jsons/s14.json,-0.607742012149988,1920,961,1920,1080,6-20-2023,10-23-22,1,15,c0,c0_large_spoon,spoon,L,kitchen,0,misscaled,c0_large_spoon_L.png,large,c,1,1043,15,7,c0_large_spoon_L.png,304012,479162,69,Woman
230606,OSSe5,v2,jsons/s14.json,-0.29434493367602443,1920,961,1920,1080,6-20-2023,10-23-22,1,16,c10,c10_small_saltshaker,saltshaker,R,kitchen,0,scaled,c10_small_saltshaker_R.png,small,m,1,1348,16,4,c10_small_saltshaker_R.png,304012,479162,69,Woman
230606,OSSe5,v2,jsons/s14.json,-0.7207704666815814,1920,961,1920,1080,6-20-2023,10-23-22,1,17,k7,k7_large_laptop,laptop,L,classroom,0,scaled,k7_large_laptop_L.png,large,c,1,933,17,4,k7_large_laptop_L.png,304012,479162,69,Woman
230606,OSSe5,v2,jsons/s14.json,1.1328961876365506,1920,961,1920,1080,6-20-2023,10-23-22,1,18,c5,c5_small_flashdrive,flashdrive,L,classroom,1,scaled,c5_small_flashdrive_L.png,small,c,1,2737,18,4,c5_small_flashdrive_L.png,304012,479162,69,Woman
230606,OSSe5,v2,jsons/s14.json,-0.30975790474851445,1920,961,1920,1080,6-20-2023,10-23-22,1,19,c4,c4_small_eraser,eraser,L,classroom,1,scaled,c4_small_eraser_L.png,small,c,1,1333,19,7,c4_small_eraser_L.png,304012,479162,69,Woman
230606,OSSe5,v2,jsons/s14.json,-0.7515964088265614,1920,961,1920,1080,6-20-2023,10-23-22,1,20,k8,k8_large_notebook,notebook,L,classroom,0,scaled,k8_large_notebook_L.png,large,c,1,903,20,4,k8_large_notebook_L.png,304012,479162,69,Woman
230606,OSSe5,v2,jsons/s14.json,-0.7772846939473781,1920,961,1920,1080,6-20-2023,10-23-22,1,21,c9,c9_small_pot,pot,R,kitchen,0,misscaled,c9_small_pot_R.png,small,m,1,878,21,1,c9_small_pot_R.png,304012,479162,69,Woman
230606,OSSe5,v2,jsons/s14.json,-0.8183859501406848,1920,961,1920,1080,6-20-2023,10-23-22,1,22,k6,k6_large_kettle,kettle,R,kitchen,1,scaled,k6_large_kettle_R.png,large,m,1,838,22,4,k6_large_kettle_R.png,304012,479162,69,Woman
230606,OSSe5,v2,jsons/s14.json,-0.5080714658812192,1920,961,1920,1080,6-20-2023,10-23-22,1,23,c6,c6_small_kettle,kettle,L,kitchen,0,misscaled,c6_small_kettle_L.png,small,c,1,1140,23,1,c6_small_kettle_L.png,304012,479162,69,Woman
372998,OSSe5,v2,jsons/s6.json,-0.6623910265534716,1366,625,1366,768,6-20-2023,10-31-4,1,0,k6,k6_small_binderclip,binderclip,L,classroom,0,scaled,k6_small_binderclip_L.png,small,c,1,1295,0,5,k6_small_binderclip_L.png,313957,442796,30,Woman
372998,OSSe5,v2,jsons/s6.json,2.4244797768025133,1366,625,1366,768,6-20-2023,10-31-4,1,1,c7,c7_large_clipboard,clipboard,R,classroom,1,scaled,c7_large_clipboard_R.png,large,m,1,3975,1,5,c7_large_clipboard_R.png,313957,442796,30,Woman
372998,OSSe5,v2,jsons/s6.json,-0.5644865421186737,1366,625,1366,768,6-20-2023,10-31-4,1,2,k1,k1_large_pot,pot,R,kitchen,1,scaled,k1_large_pot_R.png,large,m,1,1380,2,5,k1_large_pot_R.png,313957,442796,30,Woman
372998,OSSe5,v2,jsons/s6.json,1.110256050448342,1366,625,1366,768,6-20-2023,10-31-4,1,3,c4,c4_small_spoon,spoon,L,kitchen,0,scaled,c4_small_spoon_L.png,small,c,1,2834,3,4,c4_small_spoon_L.png,313957,442796,30,Woman
372998,OSSe5,v2,jsons/s6.json,0.46639008810655264,1366,625,1366,768,6-20-2023,10-31-4,1,4,k5,k5_large_toaster,toaster,R,kitchen,1,scaled,k5_large_toaster_R.png,large,c,0,2275,4,5,k5_large_toaster_R.png,313957,442796,30,Woman
372998,OSSe5,v2,jsons/s6.json,-0.383651200280282,1366,625,1366,768,6-20-2023,10-31-4,1,5,c1,c1_small_pot,pot,R,kitchen,0,misscaled,c1_small_pot_R.png,small,m,1,1537,5,2,c1_small_pot_R.png,313957,442796,30,Woman
372998,OSSe5,v2,jsons/s6.json,-0.25234400939125873,1366,625,1366,768,6-20-2023,10-31-4,1,6,k10,k10_small_kettle,kettle,L,kitchen,1,misscaled,k10_small_kettle_L.png,small,c,1,1651,6,2,k10_small_kettle_L.png,313957,442796,30,Woman
372998,OSSe5,v2,jsons/s6.json,-0.17171678691554274,1366,625,1366,768,6-20-2023,10-31-4,1,7,k9,k9_small_flashdrive,flashdrive,R,classroom,0,scaled,k9_small_flashdrive_R.png,small,m,1,1721,7,4,k9_small_flashdrive_R.png,313957,442796,30,Woman
372998,OSSe5,v2,jsons/s6.json,-0.53914655791202,1366,625,1366,768,6-20-2023,10-31-4,1,8,c8,c8_large_eraser,eraser,R,classroom,1,misscaled,c8_large_eraser_R.png,large,m,1,1402,8,7,c8_large_eraser_R.png,313957,442796,30,Woman
372998,OSSe5,v2,jsons/s6.json,-0.6001928835007764,1366,625,1366,768,6-20-2023,10-31-4,1,9,c6,c6_large_binderclip,binderclip,R,classroom,1,misscaled,c6_large_binderclip_R.png,large,m,1,1349,9,7,c6_large_binderclip_R.png,313957,442796,30,Woman
372998,OSSe5,v2,jsons/s6.json,-0.34564122397030156,1366,625,1366,768,6-20-2023,10-31-4,1,10,c10,c10_large_kettle,kettle,L,kitchen,0,scaled,c10_large_kettle_L.png,large,c,1,1570,10,4,c10_large_kettle_L.png,313957,442796,30,Woman
372998,OSSe5,v2,jsons/s6.json,3.0026921436997913,1366,625,1366,768,6-20-2023,10-31-4,1,11,k7,k7_small_clipboard,clipboard,L,classroom,0,misscaled,k7_small_clipboard_L.png,small,c,1,4477,11,3,k7_small_clipboard_L.png,313957,442796,30,Woman
372998,OSSe5,v2,jsons/s6.json,-0.4078393670229968,1366,625,1366,768,6-20-2023,10-31-4,1,12,c9,c9_large_flashdrive,flashdrive,L,classroom,1,misscaled,c9_large_flashdrive_L.png,large,c,1,1516,12,7,c9_large_flashdrive_L.png,313957,442796,30,Woman
372998,OSSe5,v2,jsons/s6.json,-0.03925777856258069,1366,625,1366,768,6-20-2023,10-31-4,1,13,k2,k2_large_saltshaker,saltshaker,L,kitchen,1,misscaled,k2_large_saltshaker_L.png,large,c,1,1836,13,7,k2_large_saltshaker_L.png,313957,442796,30,Woman
372998,OSSe5,v2,jsons/s6.json,-0.9353717655069673,1366,625,1366,768,6-20-2023,10-31-4,1,14,k0,k0_large_notebook,notebook,L,classroom,0,scaled,k0_large_notebook_L.png,large,c,1,1058,14,4,k0_large_notebook_L.png,313957,442796,30,Woman
372998,OSSe5,v2,jsons/s6.json,-0.8029127571540052,1366,625,1366,768,6-20-2023,10-31-4,1,15,k3,k3_large_sponge,sponge,R,kitchen,1,misscaled,k3_large_sponge_R.png,large,m,1,1173,15,7,k3_large_sponge_R.png,313957,442796,30,Woman
372998,OSSe5,v2,jsons/s6.json,1.0860678837056272,1366,625,1366,768,6-20-2023,10-31-4,1,16,k11,k11_small_laptop,laptop,R,classroom,0,misscaled,k11_small_laptop_R.png,small,m,1,2813,16,1,k11_small_laptop_R.png,313957,442796,30,Woman
372998,OSSe5,v2,jsons/s6.json,-0.4274202639099564,1366,625,1366,768,6-20-2023,10-31-4,1,17,k8,k8_small_eraser,eraser,R,classroom,0,scaled,k8_small_eraser_R.png,small,m,1,1499,17,4,k8_small_eraser_R.png,313957,442796,30,Woman
372998,OSSe5,v2,jsons/s6.json,0.5596873026855954,1366,625,1366,768,6-20-2023,10-31-4,1,18,c2,c2_small_saltshaker,saltshaker,L,kitchen,0,scaled,c2_small_saltshaker_L.png,small,c,1,2356,18,4,c2_small_saltshaker_L.png,313957,442796,30,Woman
372998,OSSe5,v2,jsons/s6.json,-0.35831121607362837,1366,625,1366,768,6-20-2023,10-31-4,1,19,c11,c11_large_laptop,laptop,L,classroom,1,scaled,c11_large_laptop_L.png,large,c,1,1559,19,5,c11_large_laptop_L.png,313957,442796,30,Woman
372998,OSSe5,v2,jsons/s6.json,-0.4493047957247936,1366,625,1366,768,6-20-2023,10-31-4,1,20,c5,c5_small_toaster,toaster,L,kitchen,0,misscaled,c5_small_toaster_L.png,small,c,1,1480,20,2,c5_small_toaster_L.png,313957,442796,30,Woman
372998,OSSe5,v2,jsons/s6.json,-0.8708699875263946,1366,625,1366,768,6-20-2023,10-31-4,1,21,c0,c0_small_notebook,notebook,L,classroom,1,misscaled,c0_small_notebook_L.png,small,c,1,1114,21,4,c0_small_notebook_L.png,313957,442796,30,Woman
372998,OSSe5,v2,jsons/s6.json,-0.6243810502434912,1366,625,1366,768,6-20-2023,10-31-4,1,22,c3,c3_small_sponge,sponge,R,kitchen,0,scaled,c3_small_sponge_R.png,small,m,1,1328,22,5,c3_small_sponge_R.png,313957,442796,30,Woman
372998,OSSe5,v2,jsons/s6.json,-0.21433403308127832,1366,625,1366,768,6-20-2023,10-31-4,1,23,k4,k4_large_spoon,spoon,R,kitchen,1,misscaled,k4_large_spoon_R.png,large,m,1,1684,23,7,k4_large_spoon_R.png,313957,442796,30,Woman
348599,OSSe5,v2,jsons/s3.json,3.7824556518767825,1263,590,1280,720,6-20-2023,11-44-6,1,0,c10,c10_large_pot,pot,L,kitchen,0,scaled,c10_large_pot_L.png,large,c,1,3538,0,4,c10_large_pot_L.png,309130,443132,42,Woman
348599,OSSe5,v2,jsons/s3.json,1.1383037720402733,1263,590,1280,720,6-20-2023,11-44-6,1,1,k3,k3_small_binderclip,binderclip,L,classroom,0,scaled,k3_small_binderclip_L.png,small,c,1,2074,1,4,k3_small_binderclip_L.png,309130,443132,42,Woman
348599,OSSe5,v2,jsons/s3.json,-0.5756990517062072,1263,590,1280,720,6-20-2023,11-44-6,1,2,c7,c7_large_kettle,kettle,L,kitchen,0,scaled,c7_large_kettle_L.png,large,c,1,1125,2,4,c7_large_kettle_L.png,309130,443132,42,Woman
348599,OSSe5,v2,jsons/s3.json,-0.3372919149996367,1263,590,1280,720,6-20-2023,11-44-6,1,3,k5,k5_small_eraser,eraser,R,classroom,0,scaled,k5_small_eraser_R.png,small,m,1,1257,3,7,k5_small_eraser_R.png,309130,443132,42,Woman
348599,OSSe5,v2,jsons/s3.json,-0.7039331934195898,1263,590,1280,720,6-20-2023,11-44-6,1,4,c3,c3_large_binderclip,binderclip,L,classroom,1,misscaled,c3_large_binderclip_L.png,large,c,1,1054,4,7,c3_large_binderclip_L.png,309130,443132,42,Woman
348599,OSSe5,v2,jsons/s3.json,-0.7400554868599794,1263,590,1280,720,6-20-2023,11-44-6,1,5,c5,c5_large_eraser,eraser,R,classroom,1,misscaled,c5_large_eraser_R.png,large,m,1,1034,5,7,c5_large_eraser_R.png,309130,443132,42,Woman
348599,OSSe5,v2,jsons/s3.json,0.2659503854548675,1263,590,1280,720,6-20-2023,11-44-6,1,6,k4,k4_small_clipboard,clipboard,R,classroom,0,misscaled,k4_small_clipboard_R.png,small,c,0,1591,6,4,k4_small_clipboard_R.png,309130,443132,42,Woman
348599,OSSe5,v2,jsons/s3.json,-0.38786312581618193,1263,590,1280,720,6-20-2023,11-44-6,1,7,c2,c2_small_toaster,toaster,L,kitchen,0,misscaled,c2_small_toaster_L.png,small,c,1,1229,7,1,c2_small_toaster_L.png,309130,443132,42,Woman
348599,OSSe5,v2,jsons/s3.json,-0.6678108999792004,1263,590,1280,720,6-20-2023,11-44-6,1,8,k10,k10_small_pot,pot,R,kitchen,1,misscaled,k10_small_pot_R.png,small,m,1,1074,8,1,k10_small_pot_R.png,309130,443132,42,Woman
348599,OSSe5,v2,jsons/s3.json,-0.44385268064878564,1263,590,1280,720,6-20-2023,11-44-6,1,9,k2,k2_large_toaster,toaster,R,kitchen,1,scaled,k2_large_toaster_R.png,large,m,1,1198,9,4,k2_large_toaster_R.png,309130,443132,42,Woman
348599,OSSe5,v2,jsons/s3.json,-0.5540256756419736,1263,590,1280,720,6-20-2023,11-44-6,1,10,k1,k1_large_spoon,spoon,L,kitchen,1,misscaled,k1_large_spoon_L.png,large,c,1,1137,10,7,k1_large_spoon_L.png,309130,443132,42,Woman
348599,OSSe5,v2,jsons/s3.json,-0.6876781613714146,1263,590,1280,720,6-20-2023,11-44-6,1,11,k0,k0_large_sponge,sponge,R,kitchen,1,misscaled,k0_large_sponge_R.png,large,m,1,1063,11,4,k0_large_sponge_R.png,309130,443132,42,Woman
348599,OSSe5,v2,jsons/s3.json,-0.521515611545623,1263,590,1280,720,6-20-2023,11-44-6,1,12,c4,c4_large_clipboard,clipboard,L,classroom,1,scaled,c4_large_clipboard_L.png,large,c,1,1155,12,4,c4_large_clipboard_L.png,309130,443132,42,Woman
348599,OSSe5,v2,jsons/s3.json,-0.1584865624697088,1263,590,1280,720,6-20-2023,11-44-6,1,13,k8,k8_small_laptop,laptop,L,classroom,0,misscaled,k8_small_laptop_L.png,small,c,1,1356,13,1,k8_small_laptop_L.png,309130,443132,42,Woman
348599,OSSe5,v2,jsons/s3.json,-0.3517408323757925,1263,590,1280,720,6-20-2023,11-44-6,1,14,c11,c11_large_saltshaker,saltshaker,R,kitchen,0,misscaled,c11_large_saltshaker_R.png,large,c,0,1249,14,7,c11_large_saltshaker_R.png,309130,443132,42,Woman
348599,OSSe5,v2,jsons/s3.json,-0.44746490999282457,1263,590,1280,720,6-20-2023,11-44-6,1,15,k7,k7_small_kettle,kettle,L,kitchen,1,misscaled,k7_small_kettle_L.png,small,c,1,1196,15,1,k7_small_kettle_L.png,309130,443132,42,Woman
348599,OSSe5,v2,jsons/s3.json,1.7794744806071863,1263,590,1280,720,6-20-2023,11-44-6,1,16,c6,c6_large_flashdrive,flashdrive,R,classroom,1,misscaled,c6_large_flashdrive_R.png,large,m,1,2429,16,7,c6_large_flashdrive_R.png,309130,443132,42,Woman
348599,OSSe5,v2,jsons/s3.json,0.02031879006021908,1263,590,1280,720,6-20-2023,11-44-6,1,17,c1,c1_small_spoon,spoon,R,kitchen,0,scaled,c1_small_spoon_R.png,small,m,1,1455,17,4,c1_small_spoon_R.png,309130,443132,42,Woman
348599,OSSe5,v2,jsons/s3.json,0.05824719817262802,1263,590,1280,720,6-20-2023,11-44-6,1,18,k11,k11_small_saltshaker,saltshaker,R,kitchen,1,scaled,k11_small_saltshaker_R.png,small,m,1,1476,18,4,k11_small_saltshaker_R.png,309130,443132,42,Woman
348599,OSSe5,v2,jsons/s3.json,-0.09888477829306618,1263,590,1280,720,6-20-2023,11-44-6,1,19,c9,c9_large_notebook,notebook,L,classroom,1,scaled,c9_large_notebook_L.png,large,c,1,1389,19,4,c9_large_notebook_L.png,309130,443132,42,Woman
348599,OSSe5,v2,jsons/s3.json,0.34180720167968537,1263,590,1280,720,6-20-2023,11-44-6,1,20,k6,k6_small_flashdrive,flashdrive,R,classroom,0,scaled,k6_small_flashdrive_R.png,small,m,1,1633,20,4,k6_small_flashdrive_R.png,309130,443132,42,Woman
348599,OSSe5,v2,jsons/s3.json,0.06547165686070591,1263,590,1280,720,6-20-2023,11-44-6,1,21,c8,c8_large_laptop,laptop,R,classroom,1,scaled,c8_large_laptop_R.png,large,m,1,1480,21,4,c8_large_laptop_R.png,309130,443132,42,Woman
348599,OSSe5,v2,jsons/s3.json,-0.5323522995777399,1263,590,1280,720,6-20-2023,11-44-6,1,22,c0,c0_small_sponge,sponge,L,kitchen,0,scaled,c0_small_sponge_L.png,small,c,1,1149,22,1,c0_small_sponge_L.png,309130,443132,42,Woman
348599,OSSe5,v2,jsons/s3.json,-0.24337395205462406,1263,590,1280,720,6-20-2023,11-44-6,1,23,k9,k9_small_notebook,notebook,L,classroom,0,misscaled,k9_small_notebook_L.png,small,c,1,1309,23,4,k9_small_notebook_L.png,309130,443132,42,Woman
736542,OSSe5,v2,jsons/s21.json,-0.04545349310972731,1440,799,1440,900,6-20-2023,7-29-10,1,0,k11,k11_large_eraser,eraser,R,classroom,0,misscaled,k11_large_eraser_R.png,large,m,1,1465,0,5,k11_large_eraser_R.png,214216,368247,35,Man
736542,OSSe5,v2,jsons/s21.json,2.9771589727570555,1440,799,1440,900,6-20-2023,7-29-10,1,1,c7,c7_large_spoon,spoon,L,kitchen,0,misscaled,c7_large_spoon_L.png,large,c,1,4530,1,4,c7_large_spoon_L.png,214216,368247,35,Man
736542,OSSe5,v2,jsons/s21.json,-0.4833131782140834,1440,799,1440,900,6-20-2023,7-29-10,1,2,c0,c0_large_flashdrive,flashdrive,R,classroom,1,misscaled,c0_large_flashdrive_R.png,large,m,1,1021,2,5,c0_large_flashdrive_R.png,214216,368247,35,Man
736542,OSSe5,v2,jsons/s21.json,-0.6460313044352969,1440,799,1440,900,6-20-2023,7-29-10,1,3,c6,c6_large_sponge,sponge,L,kitchen,0,misscaled,c6_large_sponge_L.png,large,c,1,856,3,3,c6_large_sponge_L.png,214216,368247,35,Man
736542,OSSe5,v2,jsons/s21.json,-0.5198014853061131,1440,799,1440,900,6-20-2023,7-29-10,1,4,c8,c8_large_toaster,toaster,L,kitchen,0,scaled,c8_large_toaster_L.png,large,c,1,984,4,5,c8_large_toaster_L.png,214216,368247,35,Man
736542,OSSe5,v2,jsons/s21.json,-0.47936849636629647,1440,799,1440,900,6-20-2023,7-29-10,1,6,k1,k1_small_kettle,kettle,L,kitchen,1,misscaled,k1_small_kettle_L.png,small,c,1,1025,6,5,k1_small_kettle_L.png,214216,368247,35,Man
736542,OSSe5,v2,jsons/s21.json,-0.44189401881232004,1440,799,1440,900,6-20-2023,7-29-10,1,7,c5,c5_large_saltshaker,saltshaker,R,kitchen,0,misscaled,c5_large_saltshaker_R.png,large,m,1,1063,7,4,c5_large_saltshaker_R.png,214216,368247,35,Man
736542,OSSe5,v2,jsons/s21.json,-0.477396155442403,1440,799,1440,900,6-20-2023,7-29-10,1,8,k2,k2_small_laptop,laptop,L,classroom,0,misscaled,k2_small_laptop_L.png,small,c,1,1027,8,5,k2_small_laptop_L.png,214216,368247,35,Man
736542,OSSe5,v2,jsons/s21.json,-0.5602344742459298,1440,799,1440,900,6-20-2023,7-29-10,1,9,c1,c1_large_kettle,kettle,R,kitchen,0,scaled,c1_large_kettle_R.png,large,m,1,943,9,3,c1_large_kettle_R.png,214216,368247,35,Man
736542,OSSe5,v2,jsons/s21.json,-0.03855029987610007,1440,799,1440,900,6-20-2023,7-29-10,1,10,c9,c9_small_binderclip,binderclip,L,classroom,1,scaled,c9_small_binderclip_L.png,small,c,1,1472,10,5,c9_small_binderclip_L.png,214216,368247,35,Man
