subjID,experimentName,versionName,sequenceName,Z-Scored RT,windowWidth,windowHeight,screenWidth,screenHeight,startDate,startTime,pracTries,trialNum,scene,objSceneSemCong,object,side,objectCategory,scale,image,keyPress,accuracy,RT,ratingTrialNum,rating,ratingObject,ratingScene,experimentTime,totalTime,age,gender
493477,OSSe5,v1,jsons/s5.json,2.781697300332483,1366,657,1366,768,6-15-2023,9-11-45,1,0,k10,0,laptop,R,classroom,scaled,k10_laptop_R.png,m,1,3520,0,2,laptop,k10,374136,557303,51,Man
493477,OSSe5,v1,jsons/s5.json,1.969317705236679,1366,657,1366,768,6-15-2023,9-11-45,1,1,k0,1,pot,L,kitchen,scaled,k0_pot_L.png,c,1,3079,1,1,pot,k0,374136,557303,51,Man
493477,OSSe5,v1,jsons/s5.json,1.0095676620509328,1366,657,1366,768,6-15-2023,9-11-45,1,3,c9,0,kettle,R,kitchen,scaled,c9_kettle_R.png,m,1,2558,3,1,kettle,c9,374136,557303,51,Man
493477,OSSe5,v1,jsons/s5.json,0.5619299259777346,1366,657,1366,768,6-15-2023,9-11-45,1,4,k8,0,flashdrive,R,classroom,misscaled,k8_flashdrive_R.png,c,0,2315,4,1,flashdrive,k8,374136,557303,51,Man
493477,OSSe5,v1,jsons/s5.json,-0.16571166146635316,1366,657,1366,768,6-15-2023,9-11-45,1,5,c4,0,toaster,L,kitchen,scaled,c4_toaster_L.png,c,1,1920,5,1,toaster,c4,374136,557303,51,Man
493477,OSSe5,v1,jsons/s5.json,0.8566708221576183,1366,657,1366,768,6-15-2023,9-11-45,1,6,k6,0,clipboard,L,classroom,scaled,k6_clipboard_L.png,c,1,2475,6,1,clipboard,k6,374136,557303,51,Man
493477,OSSe5,v1,jsons/s5.json,0.12902923471353048,1366,657,1366,768,6-15-2023,9-11-45,1,7,k2,1,sponge,L,kitchen,misscaled,k2_sponge_L.png,c,1,2080,7,1,sponge,k2,374136,557303,51,Man
493477,OSSe5,v1,jsons/s5.json,0.14192414892140037,1366,657,1366,768,6-15-2023,9-11-45,1,8,c8,1,flashdrive,L,classroom,misscaled,c8_flashdrive_L.png,c,1,2087,8,1,flashdrive,c8,374136,557303,51,Man
493477,OSSe5,v1,jsons/s5.json,-0.25966032212369106,1366,657,1366,768,6-15-2023,9-11-45,1,9,c3,0,spoon,R,kitchen,misscaled,c3_spoon_R.png,m,1,1869,9,1,spoon,c3,374136,557303,51,Man
493477,OSSe5,v1,jsons/s5.json,-0.17308018387085025,1366,657,1366,768,6-15-2023,9-11-45,1,10,c1,0,saltshaker,R,kitchen,misscaled,c1_saltshaker_R.png,m,1,1916,10,1,saltshaker,c1,374136,557303,51,Man
493477,OSSe5,v1,jsons/s5.json,-0.10860561283150072,1366,657,1366,768,6-15-2023,9-11-45,1,11,k9,1,kettle,R,kitchen,scaled,k9_kettle_R.png,m,1,1951,11,1,kettle,k9,374136,557303,51,Man
493477,OSSe5,v1,jsons/s5.json,0.753511508494659,1366,657,1366,768,6-15-2023,9-11-45,1,12,c11,1,notebook,L,classroom,scaled,c11_notebook_L.png,c,1,2419,12,1,notebook,c11,374136,557303,51,Man
493477,OSSe5,v1,jsons/s5.json,-0.7330878866126291,1366,657,1366,768,6-15-2023,9-11-45,1,13,c2,0,sponge,L,kitchen,misscaled,c2_sponge_L.png,c,1,1612,13,1,sponge,c2,374136,557303,51,Man
493477,OSSe5,v1,jsons/s5.json,-0.9633542117531633,1366,657,1366,768,6-15-2023,9-11-45,1,14,c0,0,pot,R,kitchen,scaled,c0_pot_R.png,m,1,1487,14,1,pot,c0,374136,557303,51,Man
493477,OSSe5,v1,jsons/s5.json,-1.0370394357981343,1366,657,1366,768,6-15-2023,9-11-45,1,15,k5,0,binderclip,L,classroom,misscaled,k5_binderclip_L.png,c,1,1447,15,1,binderclip,k5,374136,557303,51,Man
493477,OSSe5,v1,jsons/s5.json,-0.14729035545511043,1366,657,1366,768,6-15-2023,9-11-45,1,16,k7,0,eraser,L,classroom,misscaled,k7_eraser_L.png,c,1,1930,16,1,eraser,k7,374136,557303,51,Man
493477,OSSe5,v1,jsons/s5.json,-0.4972951696687223,1366,657,1366,768,6-15-2023,9-11-45,1,17,c7,1,eraser,L,classroom,misscaled,c7_eraser_L.png,c,1,1740,17,1,eraser,c7,374136,557303,51,Man
493477,OSSe5,v1,jsons/s5.json,-0.23202836310682698,1366,657,1366,768,6-15-2023,9-11-45,1,18,c10,1,laptop,R,classroom,scaled,c10_laptop_R.png,m,1,1884,18,1,laptop,c10,374136,557303,51,Man
493477,OSSe5,v1,jsons/s5.json,-1.488361433073581,1366,657,1366,768,6-15-2023,9-11-45,1,19,k1,1,saltshaker,R,kitchen,misscaled,k1_saltshaker_R.png,m,1,1202,19,1,saltshaker,k1,374136,557303,51,Man
493477,OSSe5,v1,jsons/s5.json,-0.023867605179784167,1366,657,1366,768,6-15-2023,9-11-45,1,20,c6,1,clipboard,R,classroom,scaled,c6_clipboard_R.png,m,1,1997,20,1,clipboard,c6,374136,557303,51,Man
493477,OSSe5,v1,jsons/s5.json,-0.15097461665735898,1366,657,1366,768,6-15-2023,9-11-45,1,21,c5,1,binderclip,L,classroom,misscaled,c5_binderclip_L.png,c,1,1928,21,1,binderclip,c5,374136,557303,51,Man
493477,OSSe5,v1,jsons/s5.json,-1.1144089210453536,1366,657,1366,768,6-15-2023,9-11-45,1,22,k11,0,notebook,R,classroom,scaled,k11_notebook_R.png,m,1,1405,22,1,notebook,k11,374136,557303,51,Man
493477,OSSe5,v1,jsons/s5.json,-1.1088825292419808,1366,657,1366,768,6-15-2023,9-11-45,1,23,k3,1,spoon,R,kitchen,misscaled,k3_spoon_R.png,m,1,1408,23,1,spoon,k3,374136,557303,51,Man
193670,OSSe5,v1,jsons/s21.json,-0.01760720041070187,1818,876,1364,768,6-15-2023,9-16-21,1,0,k6,1,sponge,L,kitchen,misscaled,k6_sponge_L.png,c,1,2378,0,1,sponge,k6,241140,318554,24,Woman
193670,OSSe5,v1,jsons/s21.json,0.7051107828024005,1818,876,1364,768,6-15-2023,9-16-21,1,1,k5,1,saltshaker,R,kitchen,misscaled,k5_saltshaker_R.png,m,1,3110,1,3,saltshaker,k5,241140,318554,24,Woman
193670,OSSe5,v1,jsons/s21.json,0.41385148628892343,1818,876,1364,768,6-15-2023,9-16-21,1,2,k2,0,laptop,R,classroom,scaled,k2_laptop_R.png,m,1,2815,2,2,laptop,k2,241140,318554,24,Woman
193670,OSSe5,v1,jsons/s21.json,0.7288064543831579,1818,876,1364,768,6-15-2023,9-16-21,1,3,c3,1,notebook,R,classroom,scaled,c3_notebook_R.png,m,1,3134,3,1,notebook,c3,241140,318554,24,Woman
193670,OSSe5,v1,jsons/s21.json,1.4604103144390443,1818,876,1364,768,6-15-2023,9-16-21,1,4,k4,1,pot,L,kitchen,scaled,k4_pot_L.png,c,1,3875,4,1,pot,k4,241140,318554,24,Woman
193670,OSSe5,v1,jsons/s21.json,0.8917141965008654,1818,876,1364,768,6-15-2023,9-16-21,1,5,c4,0,pot,L,kitchen,scaled,c4_pot_L.png,c,1,3299,5,1,pot,c4,241140,318554,24,Woman
193670,OSSe5,v1,jsons/s21.json,2.175229740458561,1818,876,1364,768,6-15-2023,9-16-21,1,6,c7,0,spoon,R,kitchen,misscaled,c7_spoon_R.png,m,1,4599,6,3,spoon,c7,241140,318554,24,Woman
193670,OSSe5,v1,jsons/s21.json,2.0922948899259097,1818,876,1364,768,6-15-2023,9-16-21,1,7,c0,1,flashdrive,L,classroom,misscaled,c0_flashdrive_L.png,c,1,4515,7,3,flashdrive,c0,241140,318554,24,Woman
193670,OSSe5,v1,jsons/s21.json,1.363652988817618,1818,876,1364,768,6-15-2023,9-16-21,1,8,k3,0,notebook,L,classroom,scaled,k3_notebook_L.png,c,1,3777,8,1,notebook,k3,241140,318554,24,Woman
193670,OSSe5,v1,jsons/s21.json,-0.9269285973222692,1818,876,1364,768,6-15-2023,9-16-21,1,9,k1,1,kettle,L,kitchen,scaled,k1_kettle_L.png,c,1,1457,9,1,kettle,k1,241140,318554,24,Woman
193670,OSSe5,v1,jsons/s21.json,-0.23481752323431185,1818,876,1364,768,6-15-2023,9-16-21,1,10,c5,0,saltshaker,R,kitchen,misscaled,c5_saltshaker_R.png,m,1,2158,10,1,saltshaker,c5,241140,318554,24,Woman
193670,OSSe5,v1,jsons/s21.json,-0.6346819811595938,1818,876,1364,768,6-15-2023,9-16-21,1,11,k8,1,toaster,R,kitchen,scaled,k8_toaster_R.png,m,1,1753,11,1,toaster,k8,241140,318554,24,Woman
193670,OSSe5,v1,jsons/s21.json,-0.6099989899296382,1818,876,1364,768,6-15-2023,9-16-21,1,12,k10,0,clipboard,L,classroom,scaled,k10_clipboard_L.png,c,1,1778,12,1,clipboard,k10,241140,318554,24,Woman
193670,OSSe5,v1,jsons/s21.json,-0.8281966324024465,1818,876,1364,768,6-15-2023,9-16-21,1,13,k11,0,eraser,L,classroom,misscaled,k11_eraser_L.png,c,1,1557,13,1,eraser,k11,241140,318554,24,Woman
193670,OSSe5,v1,jsons/s21.json,-0.8114121983660766,1818,876,1364,768,6-15-2023,9-16-21,1,14,k9,0,binderclip,R,classroom,misscaled,k9_binderclip_R.png,m,1,1574,14,1,binderclip,k9,241140,318554,24,Woman
193670,OSSe5,v1,jsons/s21.json,-0.3967379457028211,1818,876,1364,768,6-15-2023,9-16-21,1,15,c2,1,laptop,L,classroom,scaled,c2_laptop_L.png,c,1,1994,15,1,laptop,c2,241140,318554,24,Woman
193670,OSSe5,v1,jsons/s21.json,-0.8667020987211773,1818,876,1364,768,6-15-2023,9-16-21,1,16,c10,1,clipboard,L,classroom,scaled,c10_clipboard_L.png,c,1,1518,16,1,clipboard,c10,241140,318554,24,Woman
193670,OSSe5,v1,jsons/s21.json,-0.9901170548709557,1818,876,1364,768,6-15-2023,9-16-21,1,17,c1,0,kettle,R,kitchen,scaled,c1_kettle_R.png,m,1,1393,17,1,kettle,c1,241140,318554,24,Woman
193670,OSSe5,v1,jsons/s21.json,-0.9239666383746745,1818,876,1364,768,6-15-2023,9-16-21,1,18,c8,0,toaster,R,kitchen,scaled,c8_toaster_R.png,m,1,1460,18,1,toaster,c8,241140,318554,24,Woman
193670,OSSe5,v1,jsons/s21.json,-0.5764301218568985,1818,876,1364,768,6-15-2023,9-16-21,1,19,k0,0,flashdrive,L,classroom,misscaled,k0_flashdrive_L.png,c,1,1812,19,2,flashdrive,k0,241140,318554,24,Woman
193670,OSSe5,v1,jsons/s21.json,-0.804500960821689,1818,876,1364,768,6-15-2023,9-16-21,1,20,c9,1,binderclip,R,classroom,misscaled,c9_binderclip_R.png,m,1,1581,20,1,binderclip,c9,241140,318554,24,Woman
193670,OSSe5,v1,jsons/s21.json,-0.8716386969671684,1818,876,1364,768,6-15-2023,9-16-21,1,21,c6,0,sponge,R,kitchen,misscaled,c6_sponge_R.png,m,1,1513,21,1,sponge,c6,241140,318554,24,Woman
193670,OSSe5,v1,jsons/s21.json,-0.5754428022077003,1818,876,1364,768,6-15-2023,9-16-21,1,22,k7,1,spoon,L,kitchen,misscaled,k7_spoon_L.png,c,1,1813,22,4,spoon,k7,241140,318554,24,Woman
193670,OSSe5,v1,jsons/s21.json,0.23810858873163898,1818,876,1364,768,6-15-2023,9-16-21,1,23,c11,1,eraser,R,classroom,misscaled,c11_eraser_R.png,m,1,2637,23,2,eraser,c11,241140,318554,24,Woman
934097,OSSe5,v1,jsons/s3.json,-0.22795243806285284,1920,969,1920,1080,6-15-2023,10-8-25,1,0,k3,0,binderclip,L,classroom,misscaled,k3_binderclip_L.png,c,1,1017,0,1,binderclip,k3,207742,278484,21,Woman
934097,OSSe5,v1,jsons/s3.json,2.675772282605554,1920,969,1920,1080,6-15-2023,10-8-25,1,1,k4,0,clipboard,R,classroom,scaled,k4_clipboard_R.png,m,1,1595,1,1,clipboard,k4,207742,278484,21,Woman
934097,OSSe5,v1,jsons/s3.json,2.3542525903516123,1920,969,1920,1080,6-15-2023,10-8-25,1,2,c6,1,flashdrive,R,classroom,misscaled,c6_flashdrive_R.png,m,1,1531,2,3,flashdrive,c6,207742,278484,21,Woman
934097,OSSe5,v1,jsons/s3.json,0.02323482151053872,1920,969,1920,1080,6-15-2023,10-8-25,1,3,c11,0,saltshaker,L,kitchen,misscaled,c11_saltshaker_L.png,c,1,1067,3,2,saltshaker,c11,207742,278484,21,Woman
934097,OSSe5,v1,jsons/s3.json,-0.6198045629973437,1920,969,1920,1080,6-15-2023,10-8-25,1,4,c5,1,eraser,L,classroom,misscaled,c5_eraser_L.png,c,1,939,4,4,eraser,c5,207742,278484,21,Woman
934097,OSSe5,v1,jsons/s3.json,-0.37364104861541997,1920,969,1920,1080,6-15-2023,10-8-25,1,5,c3,1,binderclip,L,classroom,misscaled,c3_binderclip_L.png,c,1,988,5,4,binderclip,c3,207742,278484,21,Woman
934097,OSSe5,v1,jsons/s3.json,-1.026727923506238,1920,969,1920,1080,6-15-2023,10-8-25,1,6,k7,1,kettle,R,kitchen,scaled,k7_kettle_R.png,m,1,858,6,3,kettle,k7,207742,278484,21,Woman
934097,OSSe5,v1,jsons/s3.json,0.701440422358696,1920,969,1920,1080,6-15-2023,10-8-25,1,7,c1,0,spoon,L,kitchen,misscaled,c1_spoon_L.png,c,1,1202,7,1,spoon,c1,207742,278484,21,Woman
934097,OSSe5,v1,jsons/s3.json,-0.05212135636147875,1920,969,1920,1080,6-15-2023,10-8-25,1,8,c0,0,sponge,L,kitchen,misscaled,c0_sponge_L.png,c,1,1052,8,2,sponge,c0,207742,278484,21,Woman
934097,OSSe5,v1,jsons/s3.json,-0.911181784102478,1920,969,1920,1080,6-15-2023,10-8-25,1,9,k10,1,pot,R,kitchen,scaled,k10_pot_R.png,m,1,881,9,4,pot,k10,207742,278484,21,Woman
934097,OSSe5,v1,jsons/s3.json,-0.25809490921165984,1920,969,1920,1080,6-15-2023,10-8-25,1,10,k2,1,toaster,R,kitchen,scaled,k2_toaster_R.png,m,1,1011,10,1,toaster,k2,207742,278484,21,Woman
934097,OSSe5,v1,jsons/s3.json,-1.1422740629099981,1920,969,1920,1080,6-15-2023,10-8-25,1,11,k6,0,flashdrive,L,classroom,misscaled,k6_flashdrive_L.png,c,1,835,11,3,flashdrive,k6,207742,278484,21,Woman
934097,OSSe5,v1,jsons/s3.json,-0.343498577466613,1920,969,1920,1080,6-15-2023,10-8-25,1,12,c8,1,laptop,R,classroom,scaled,c8_laptop_R.png,m,1,994,12,2,laptop,c8,207742,278484,21,Woman
934097,OSSe5,v1,jsons/s3.json,0.7416303838904386,1920,969,1920,1080,6-15-2023,10-8-25,1,13,k9,0,notebook,L,classroom,scaled,k9_notebook_L.png,c,1,1210,13,4,notebook,k9,207742,278484,21,Woman
934097,OSSe5,v1,jsons/s3.json,1.2289336674628182,1920,969,1920,1080,6-15-2023,10-8-25,1,14,c2,0,toaster,R,kitchen,scaled,c2_toaster_R.png,m,1,1307,14,2,toaster,c2,207742,278484,21,Woman
934097,OSSe5,v1,jsons/s3.json,-0.9413242552512849,1920,969,1920,1080,6-15-2023,10-8-25,1,15,k1,1,spoon,L,kitchen,misscaled,k1_spoon_L.png,c,1,875,15,4,spoon,k1,207742,278484,21,Woman
934097,OSSe5,v1,jsons/s3.json,-0.7403744475925716,1920,969,1920,1080,6-15-2023,10-8-25,1,16,k0,1,sponge,R,kitchen,misscaled,k0_sponge_R.png,m,1,915,16,3,sponge,k0,207742,278484,21,Woman
934097,OSSe5,v1,jsons/s3.json,-1.0719416302294484,1920,969,1920,1080,6-15-2023,10-8-25,1,17,k8,0,laptop,R,classroom,scaled,k8_laptop_R.png,m,1,849,17,2,laptop,k8,207742,278484,21,Woman
934097,OSSe5,v1,jsons/s3.json,-0.18273873133964236,1920,969,1920,1080,6-15-2023,10-8-25,1,18,c9,1,notebook,R,classroom,scaled,c9_notebook_R.png,m,1,1026,18,2,notebook,c9,207742,278484,21,Woman
934097,OSSe5,v1,jsons/s3.json,0.21916088397778413,1920,969,1920,1080,6-15-2023,10-8-25,1,19,k5,0,eraser,L,classroom,misscaled,k5_eraser_L.png,c,1,1106,19,3,eraser,k5,207742,278484,21,Woman
934097,OSSe5,v1,jsons/s3.json,-0.670042014912022,1920,969,1920,1080,6-15-2023,10-8-25,1,20,c10,0,pot,R,kitchen,scaled,c10_pot_R.png,m,1,929,20,3,pot,c10,207742,278484,21,Woman
934097,OSSe5,v1,jsons/s3.json,-0.30833236112633816,1920,969,1920,1080,6-15-2023,10-8-25,1,21,c7,0,kettle,R,kitchen,scaled,c7_kettle_R.png,m,1,1001,21,3,kettle,c7,207742,278484,21,Woman
934097,OSSe5,v1,jsons/s3.json,0.18399466763750932,1920,969,1920,1080,6-15-2023,10-8-25,1,22,c4,1,clipboard,L,classroom,scaled,c4_clipboard_L.png,c,1,1099,22,4,clipboard,c4,207742,278484,21,Woman
934097,OSSe5,v1,jsons/s3.json,0.7416303838904386,1920,969,1920,1080,6-15-2023,10-8-25,1,23,k11,1,saltshaker,L,kitchen,misscaled,k11_saltshaker_L.png,c,1,1210,23,3,saltshaker,k11,207742,278484,21,Woman
451493,OSSe5,v1,jsons/s11.json,-0.6845437445300048,1364,657,1364,768,6-15-2023,9-13-24,1,0,c10,0,toaster,R,kitchen,scaled,c10_toaster_R.png,m,1,1988,0,3,toaster,c10,303210,408789,30,Woman
451493,OSSe5,v1,jsons/s11.json,0.7213376450734527,1364,657,1364,768,6-15-2023,9-13-24,1,1,c8,0,sponge,R,kitchen,misscaled,c8_sponge_R.png,c,0,3112,1,2,sponge,c8,303210,408789,30,Woman
451493,OSSe5,v1,jsons/s11.json,-0.16796988874154575,1364,657,1364,768,6-15-2023,9-13-24,1,2,k6,1,pot,R,kitchen,scaled,k6_pot_R.png,m,1,2401,2,4,pot,k6,303210,408789,30,Woman
451493,OSSe5,v1,jsons/s11.json,1.0740587766287686,1364,657,1364,768,6-15-2023,9-13-24,1,3,c11,1,binderclip,L,classroom,misscaled,c11_binderclip_L.png,c,1,3394,3,4,binderclip,c11,303210,408789,30,Woman
451493,OSSe5,v1,jsons/s11.json,0.6037639345550141,1364,657,1364,768,6-15-2023,9-13-24,1,4,k7,1,saltshaker,L,kitchen,misscaled,k7_saltshaker_L.png,c,1,3018,4,3,saltshaker,k7,303210,408789,30,Woman
451493,OSSe5,v1,jsons/s11.json,2.5149621225568675,1364,657,1364,768,6-15-2023,9-13-24,1,5,k11,0,binderclip,R,classroom,misscaled,k11_binderclip_R.png,m,1,4546,5,3,binderclip,k11,303210,408789,30,Woman
451493,OSSe5,v1,jsons/s11.json,-0.16671910458709427,1364,657,1364,768,6-15-2023,9-13-24,1,6,c0,1,clipboard,L,classroom,scaled,c0_clipboard_L.png,c,1,2402,6,2,clipboard,c0,303210,408789,30,Woman
451493,OSSe5,v1,jsons/s11.json,0.5449770792957948,1364,657,1364,768,6-15-2023,9-13-24,1,7,k9,1,spoon,L,kitchen,misscaled,k9_spoon_L.png,c,1,2971,7,3,spoon,k9,303210,408789,30,Woman
451493,OSSe5,v1,jsons/s11.json,1.5856294957994217,1364,657,1364,768,6-15-2023,9-13-24,1,8,c7,0,saltshaker,L,kitchen,misscaled,c7_saltshaker_L.png,c,1,3803,8,3,saltshaker,c7,303210,408789,30,Woman
451493,OSSe5,v1,jsons/s11.json,0.434908073704065,1364,657,1364,768,6-15-2023,9-13-24,1,9,k2,0,flashdrive,L,classroom,misscaled,k2_flashdrive_L.png,c,1,2883,9,2,flashdrive,k2,303210,408789,30,Woman
451493,OSSe5,v1,jsons/s11.json,1.6331592936685777,1364,657,1364,768,6-15-2023,9-13-24,1,10,c9,0,spoon,R,kitchen,misscaled,c9_spoon_R.png,m,1,3841,10,2,spoon,c9,303210,408789,30,Woman
451493,OSSe5,v1,jsons/s11.json,-0.8471456846086964,1364,657,1364,768,6-15-2023,9-13-24,1,11,c1,1,eraser,L,classroom,misscaled,c1_eraser_L.png,c,1,1858,11,3,eraser,c1,303210,408789,30,Woman
451493,OSSe5,v1,jsons/s11.json,-0.9647193951271351,1364,657,1364,768,6-15-2023,9-13-24,1,12,c3,0,kettle,L,kitchen,scaled,c3_kettle_L.png,c,1,1764,12,3,kettle,c3,303210,408789,30,Woman
451493,OSSe5,v1,jsons/s11.json,-0.9859827257528101,1364,657,1364,768,6-15-2023,9-13-24,1,13,k3,1,kettle,L,kitchen,scaled,k3_kettle_L.png,c,1,1747,13,2,kettle,k3,303210,408789,30,Woman
451493,OSSe5,v1,jsons/s11.json,0.23478260899182907,1364,657,1364,768,6-15-2023,9-13-24,1,14,c6,0,pot,R,kitchen,scaled,c6_pot_R.png,c,0,2723,14,3,pot,c6,303210,408789,30,Woman
451493,OSSe5,v1,jsons/s11.json,-1.1786034855383372,1364,657,1364,768,6-15-2023,9-13-24,1,15,k8,1,sponge,R,kitchen,misscaled,k8_sponge_R.png,m,1,1593,15,4,sponge,k8,303210,408789,30,Woman
451493,OSSe5,v1,jsons/s11.json,-0.9659701792815866,1364,657,1364,768,6-15-2023,9-13-24,1,16,c4,1,laptop,L,classroom,scaled,c4_laptop_L.png,c,1,1763,16,3,laptop,c4,303210,408789,30,Woman
451493,OSSe5,v1,jsons/s11.json,-0.7758509878049624,1364,657,1364,768,6-15-2023,9-13-24,1,17,k1,0,eraser,R,classroom,misscaled,k1_eraser_R.png,m,1,1915,17,3,eraser,k1,303210,408789,30,Woman
451493,OSSe5,v1,jsons/s11.json,-0.8058698075117978,1364,657,1364,768,6-15-2023,9-13-24,1,18,k5,0,notebook,R,classroom,scaled,k5_notebook_R.png,m,1,1891,18,2,notebook,k5,303210,408789,30,Woman
451493,OSSe5,v1,jsons/s11.json,0.3736196501359427,1364,657,1364,768,6-15-2023,9-13-24,1,19,k4,0,laptop,L,classroom,scaled,k4_laptop_L.png,c,1,2834,19,3,laptop,k4,303210,408789,30,Woman
451493,OSSe5,v1,jsons/s11.json,0.24228731391853792,1364,657,1364,768,6-15-2023,9-13-24,1,20,c5,1,notebook,R,classroom,scaled,c5_notebook_R.png,m,1,2729,20,2,notebook,c5,303210,408789,30,Woman
451493,OSSe5,v1,jsons/s11.json,-0.7771017719594139,1364,657,1364,768,6-15-2023,9-13-24,1,21,k0,0,clipboard,R,classroom,scaled,k0_clipboard_R.png,m,1,1914,21,2,clipboard,k0,303210,408789,30,Woman
451493,OSSe5,v1,jsons/s11.json,-0.674537471294393,1364,657,1364,768,6-15-2023,9-13-24,1,22,k10,1,toaster,R,kitchen,scaled,k10_toaster_R.png,m,1,1996,22,3,toaster,k10,303210,408789,30,Woman
451493,OSSe5,v1,jsons/s11.json,-0.9684717475904895,1364,657,1364,768,6-15-2023,9-13-24,1,23,c2,1,flashdrive,L,classroom,misscaled,c2_flashdrive_L.png,c,1,1761,23,3,flashdrive,c2,303210,408789,30,Woman
833860,OSSe5,v1,jsons/s17.json,0.06304294197728083,1920,937,1920,1080,6-15-2023,9-9-35,2,0,c11,1,notebook,R,classroom,scaled,c11_notebook_R.png,m,1,1946,0,3,notebook,c11,433890,713172,35,Woman
833860,OSSe5,v1,jsons/s17.json,2.055018489921294,1920,937,1920,1080,6-15-2023,9-9-35,2,1,k5,0,binderclip,L,classroom,misscaled,k5_binderclip_L.png,c,1,3410,1,3,binderclip,k5,433890,713172,35,Woman
833860,OSSe5,v1,jsons/s17.json,0.21815579202210156,1920,937,1920,1080,6-15-2023,9-9-35,2,2,c6,1,clipboard,L,classroom,scaled,c6_clipboard_L.png,c,1,2060,2,4,clipboard,c6,433890,713172,35,Woman
833860,OSSe5,v1,jsons/s17.json,0.0031748244161219586,1920,937,1920,1080,6-15-2023,9-9-35,2,3,c1,0,saltshaker,R,kitchen,misscaled,c1_saltshaker_R.png,m,1,1902,3,2,saltshaker,c1,433890,713172,35,Woman
833860,OSSe5,v1,jsons/s17.json,-0.6812266104307625,1920,937,1920,1080,6-15-2023,9-9-35,2,4,k7,0,eraser,R,classroom,misscaled,k7_eraser_R.png,m,1,1399,4,4,eraser,k7,433890,713172,35,Woman
833860,OSSe5,v1,jsons/s17.json,-0.4621637257183402,1920,937,1920,1080,6-15-2023,9-9-35,2,5,c8,1,flashdrive,R,classroom,misscaled,c8_flashdrive_R.png,m,1,1560,5,3,flashdrive,c8,433890,713172,35,Woman
833860,OSSe5,v1,jsons/s17.json,1.0862434966589052,1920,937,1920,1080,6-15-2023,9-9-35,2,6,c9,0,kettle,R,kitchen,scaled,c9_kettle_R.png,m,1,2698,6,3,kettle,c9,433890,713172,35,Woman
833860,OSSe5,v1,jsons/s17.json,-0.6825872494662434,1920,937,1920,1080,6-15-2023,9-9-35,2,7,c2,0,sponge,L,kitchen,misscaled,c2_sponge_L.png,c,1,1398,7,2,sponge,c2,433890,713172,35,Woman
833860,OSSe5,v1,jsons/s17.json,-0.500261618711805,1920,937,1920,1080,6-15-2023,9-9-35,2,8,c10,1,laptop,L,classroom,scaled,c10_laptop_L.png,c,1,1532,8,4,laptop,c10,433890,713172,35,Woman
833860,OSSe5,v1,jsons/s17.json,-0.14241355238033257,1920,937,1920,1080,6-15-2023,9-9-35,2,9,k0,1,pot,L,kitchen,scaled,k0_pot_L.png,c,1,1795,9,4,pot,k0,433890,713172,35,Woman
833860,OSSe5,v1,jsons/s17.json,-0.5995882683019095,1920,937,1920,1080,6-15-2023,9-9-35,2,10,k8,0,flashdrive,L,classroom,misscaled,k8_flashdrive_L.png,c,1,1459,10,4,flashdrive,k8,433890,713172,35,Woman
833860,OSSe5,v1,jsons/s17.json,-0.1396922743093708,1920,937,1920,1080,6-15-2023,9-9-35,2,11,k2,1,sponge,R,kitchen,misscaled,k2_sponge_R.png,m,1,1797,11,1,sponge,k2,433890,713172,35,Woman
833860,OSSe5,v1,jsons/s17.json,-0.9451905833140539,1920,937,1920,1080,6-15-2023,9-9-35,2,12,c3,0,spoon,L,kitchen,misscaled,c3_spoon_L.png,c,1,1205,12,4,spoon,c3,433890,713172,35,Woman
833860,OSSe5,v1,jsons/s17.json,2.758468871264911,1920,937,1920,1080,6-15-2023,9-9-35,2,13,k4,1,toaster,R,kitchen,scaled,k4_toaster_R.png,m,1,3927,13,4,toaster,k4,433890,713172,35,Woman
833860,OSSe5,v1,jsons/s17.json,0.27938454861874135,1920,937,1920,1080,6-15-2023,9-9-35,2,14,c5,1,binderclip,R,classroom,misscaled,c5_binderclip_R.png,m,1,2105,14,4,binderclip,c5,433890,713172,35,Woman
833860,OSSe5,v1,jsons/s17.json,-0.885322465752895,1920,937,1920,1080,6-15-2023,9-9-35,2,15,k10,0,laptop,R,classroom,scaled,k10_laptop_R.png,m,1,1249,15,3,laptop,k10,433890,713172,35,Woman
833860,OSSe5,v1,jsons/s17.json,-1.0363533986912732,1920,937,1920,1080,6-15-2023,9-9-35,2,16,k1,1,saltshaker,R,kitchen,misscaled,k1_saltshaker_R.png,m,1,1138,16,4,saltshaker,k1,433890,713172,35,Woman
833860,OSSe5,v1,jsons/s17.json,0.16917278674478975,1920,937,1920,1080,6-15-2023,9-9-35,2,17,c4,0,toaster,L,kitchen,scaled,c4_toaster_L.png,c,1,2024,17,4,toaster,c4,433890,713172,35,Woman
833860,OSSe5,v1,jsons/s17.json,-0.28392001207034445,1920,937,1920,1080,6-15-2023,9-9-35,2,18,k11,0,notebook,L,classroom,scaled,k11_notebook_L.png,c,1,1691,18,4,notebook,k11,433890,713172,35,Woman
833860,OSSe5,v1,jsons/s17.json,-0.5233924823149799,1920,937,1920,1080,6-15-2023,9-9-35,2,19,k9,1,kettle,R,kitchen,scaled,k9_kettle_R.png,m,1,1515,19,3,kettle,k9,433890,713172,35,Woman
833860,OSSe5,v1,jsons/s17.json,-0.5152286481020947,1920,937,1920,1080,6-15-2023,9-9-35,2,20,c0,0,pot,L,kitchen,scaled,c0_pot_L.png,c,1,1521,20,3,pot,c0,433890,713172,35,Woman
833860,OSSe5,v1,jsons/s17.json,-0.5560478191665211,1920,937,1920,1080,6-15-2023,9-9-35,2,21,c7,1,eraser,R,classroom,misscaled,c7_eraser_R.png,m,1,1491,21,2,eraser,c7,433890,713172,35,Woman
833860,OSSe5,v1,jsons/s17.json,1.9801833429698457,1920,937,1920,1080,6-15-2023,9-9-35,2,22,k3,1,spoon,L,kitchen,misscaled,k3_spoon_L.png,c,1,3355,22,3,spoon,k3,433890,713172,35,Woman
833860,OSSe5,v1,jsons/s17.json,-0.6594563858630683,1920,937,1920,1080,6-15-2023,9-9-35,2,23,k6,0,clipboard,L,classroom,scaled,k6_clipboard_L.png,c,1,1415,23,2,clipboard,k6,433890,713172,35,Woman
838343,OSSe5,v1,jsons/s8.json,0.5975930482809992,1920,947,1920,1080,6-15-2023,9-15-47,1,0,k6,1,spoon,R,kitchen,misscaled,k6_spoon_R.png,m,1,1033,0,2,spoon,k6,191798,251448,52,Woman
838343,OSSe5,v1,jsons/s8.json,1.0177509800239397,1920,947,1920,1080,6-15-2023,9-15-47,1,1,c7,0,toaster,L,kitchen,scaled,c7_toaster_L.png,c,1,1166,1,4,toaster,c7,191798,251448,52,Woman
838343,OSSe5,v1,jsons/s8.json,-0.8208348566256195,1920,947,1920,1080,6-15-2023,9-15-47,1,2,k5,1,sponge,L,kitchen,misscaled,k5_sponge_L.png,c,1,584,2,1,sponge,k5,191798,251448,52,Woman
838343,OSSe5,v1,jsons/s8.json,-0.5839036921089237,1920,947,1920,1080,6-15-2023,9-15-47,1,3,k3,1,pot,R,kitchen,scaled,k3_pot_R.png,m,1,659,3,4,pot,k3,191798,251448,52,Woman
838343,OSSe5,v1,jsons/s8.json,-0.9471981443678572,1920,947,1920,1080,6-15-2023,9-15-47,1,4,c0,0,kettle,L,kitchen,scaled,c0_kettle_L.png,c,1,544,4,3,kettle,c0,191798,251448,52,Woman
838343,OSSe5,v1,jsons/s8.json,-0.9156073224322978,1920,947,1920,1080,6-15-2023,9-15-47,1,5,c10,1,eraser,R,classroom,misscaled,c10_eraser_R.png,m,1,554,5,1,eraser,c10,191798,251448,52,Woman
838343,OSSe5,v1,jsons/s8.json,-0.41331325365690275,1920,947,1920,1080,6-15-2023,9-15-47,1,6,c11,1,flashdrive,R,classroom,misscaled,c11_flashdrive_R.png,m,1,713,6,1,flashdrive,c11,191798,251448,52,Woman
838343,OSSe5,v1,jsons/s8.json,0.888228610088146,1920,947,1920,1080,6-15-2023,9-15-47,1,7,k4,1,saltshaker,L,kitchen,misscaled,k4_saltshaker_L.png,c,1,1125,7,1,saltshaker,k4,191798,251448,52,Woman
838343,OSSe5,v1,jsons/s8.json,-1.1399021581747697,1920,947,1920,1080,6-15-2023,9-15-47,1,8,k2,0,notebook,R,classroom,scaled,k2_notebook_R.png,m,1,483,8,4,notebook,k2,191798,251448,52,Woman
838343,OSSe5,v1,jsons/s8.json,-0.4259495824311265,1920,947,1920,1080,6-15-2023,9-15-47,1,9,c9,1,clipboard,L,classroom,scaled,c9_clipboard_L.png,c,1,709,9,4,clipboard,c9,191798,251448,52,Woman
838343,OSSe5,v1,jsons/s8.json,0.27536666453829295,1920,947,1920,1080,6-15-2023,9-15-47,1,10,c6,0,spoon,L,kitchen,misscaled,c6_spoon_L.png,c,1,931,10,1,spoon,c6,191798,251448,52,Woman
838343,OSSe5,v1,jsons/s8.json,0.1395261302153874,1920,947,1920,1080,6-15-2023,9-15-47,1,11,k1,0,laptop,L,classroom,scaled,k1_laptop_L.png,c,1,888,11,2,laptop,k1,191798,251448,52,Woman
838343,OSSe5,v1,jsons/s8.json,-0.6723579935284901,1920,947,1920,1080,6-15-2023,9-15-47,1,12,k7,1,toaster,L,kitchen,scaled,k7_toaster_L.png,c,1,631,12,3,toaster,k7,191798,251448,52,Woman
838343,OSSe5,v1,jsons/s8.json,-0.2364046508177699,1920,947,1920,1080,6-15-2023,9-15-47,1,13,c2,1,notebook,L,classroom,scaled,c2_notebook_L.png,c,1,769,13,2,notebook,c2,191798,251448,52,Woman
838343,OSSe5,v1,jsons/s8.json,-0.30274537688244474,1920,947,1920,1080,6-15-2023,9-15-47,1,14,k0,1,kettle,R,kitchen,scaled,k0_kettle_R.png,m,1,748,14,3,kettle,k0,191798,251448,52,Woman
838343,OSSe5,v1,jsons/s8.json,2.218202213575198,1920,947,1920,1080,6-15-2023,9-15-47,1,15,c3,0,pot,L,kitchen,scaled,c3_pot_L.png,c,1,1546,15,4,pot,c3,191798,251448,52,Woman
838343,OSSe5,v1,jsons/s8.json,-0.6628807469478223,1920,947,1920,1080,6-15-2023,9-15-47,1,16,c5,0,sponge,R,kitchen,misscaled,c5_sponge_R.png,m,1,634,16,1,sponge,c5,191798,251448,52,Woman
838343,OSSe5,v1,jsons/s8.json,0.05738999318293286,1920,947,1920,1080,6-15-2023,9-15-47,1,17,k11,0,flashdrive,R,classroom,misscaled,k11_flashdrive_R.png,m,1,862,17,1,flashdrive,k11,191798,251448,52,Woman
838343,OSSe5,v1,jsons/s8.json,-0.2964272124953328,1920,947,1920,1080,6-15-2023,9-15-47,1,18,c1,1,laptop,R,classroom,scaled,c1_laptop_R.png,m,1,750,18,2,laptop,c1,191798,251448,52,Woman
838343,OSSe5,v1,jsons/s8.json,2.3350882547367684,1920,947,1920,1080,6-15-2023,9-15-47,1,19,c4,0,saltshaker,L,kitchen,misscaled,c4_saltshaker_L.png,c,1,1583,19,1,saltshaker,c4,191798,251448,52,Woman
838343,OSSe5,v1,jsons/s8.json,-0.8176757744320635,1920,947,1920,1080,6-15-2023,9-15-47,1,20,k10,0,eraser,R,classroom,misscaled,k10_eraser_R.png,m,1,585,20,1,eraser,k10,191798,251448,52,Woman
838343,OSSe5,v1,jsons/s8.json,-0.1353140206239797,1920,947,1920,1080,6-15-2023,9-15-47,1,21,c8,1,binderclip,R,classroom,misscaled,c8_binderclip_R.png,m,1,801,21,1,binderclip,c8,191798,251448,52,Woman
838343,OSSe5,v1,jsons/s8.json,1.7948851996387019,1920,947,1920,1080,6-15-2023,9-15-47,1,22,k8,0,binderclip,L,classroom,misscaled,k8_binderclip_L.png,c,1,1412,22,1,binderclip,k8,191798,251448,52,Woman
838343,OSSe5,v1,jsons/s8.json,-0.9535163087549691,1920,947,1920,1080,6-15-2023,9-15-47,1,23,k9,0,clipboard,R,classroom,scaled,k9_clipboard_R.png,m,1,542,23,3,clipboard,k9,191798,251448,52,Woman
534800,OSSe5,v1,jsons/s19.json,1.4195177699980446,1920,969,1920,1080,6-15-2023,9-13-35,1,0,k10,0,flashdrive,R,classroom,misscaled,k10_flashdrive_R.png,m,1,1986,0,4,flashdrive,k10,426916,522319,35,Woman
534800,OSSe5,v1,jsons/s19.json,0.1592665331238156,1920,969,1920,1080,6-15-2023,9-13-35,1,1,k4,1,sponge,R,kitchen,misscaled,k4_sponge_R.png,m,1,1386,1,3,sponge,k4,426916,522319,35,Woman
534800,OSSe5,v1,jsons/s19.json,-0.7649177072506189,1920,969,1920,1080,6-15-2023,9-13-35,1,2,k0,0,laptop,R,classroom,scaled,k0_laptop_R.png,m,1,946,2,3,laptop,k0,426916,522319,35,Woman
534800,OSSe5,v1,jsons/s19.json,-0.5611770906226186,1920,969,1920,1080,6-15-2023,9-13-35,1,3,k7,0,binderclip,L,classroom,misscaled,k7_binderclip_L.png,c,1,1043,3,3,binderclip,k7,426916,522319,35,Woman
534800,OSSe5,v1,jsons/s19.json,2.1882710244913244,1920,969,1920,1080,6-15-2023,9-13-35,1,4,c7,1,binderclip,R,classroom,misscaled,c7_binderclip_R.png,m,1,2352,4,4,binderclip,c7,426916,522319,35,Woman
534800,OSSe5,v1,jsons/s19.json,-0.7985244069005983,1920,969,1920,1080,6-15-2023,9-13-35,1,5,c4,0,sponge,L,kitchen,misscaled,c4_sponge_L.png,c,1,930,5,3,sponge,c4,426916,522319,35,Woman
534800,OSSe5,v1,jsons/s19.json,2.646162307222294,1920,969,1920,1080,6-15-2023,9-13-35,1,6,c2,0,pot,L,kitchen,scaled,c2_pot_L.png,c,1,2570,6,4,pot,c2,426916,522319,35,Woman
534800,OSSe5,v1,jsons/s19.json,-0.6283904899225775,1920,969,1920,1080,6-15-2023,9-13-35,1,7,c0,1,laptop,L,classroom,scaled,c0_laptop_L.png,c,1,1011,7,2,laptop,c0,426916,522319,35,Woman
534800,OSSe5,v1,jsons/s19.json,0.04164308434888759,1920,969,1920,1080,6-15-2023,9-13-35,1,8,k1,0,notebook,R,classroom,scaled,k1_notebook_R.png,m,1,1330,8,3,notebook,k1,426916,522319,35,Woman
534800,OSSe5,v1,jsons/s19.json,-0.491863272594536,1920,969,1920,1080,6-15-2023,9-13-35,1,9,k11,1,kettle,R,kitchen,scaled,k11_kettle_R.png,m,1,1076,9,2,kettle,k11,426916,522319,35,Woman
534800,OSSe5,v1,jsons/s19.json,-1.0232692108098358,1920,969,1920,1080,6-15-2023,9-13-35,1,10,c1,1,notebook,L,classroom,scaled,c1_notebook_L.png,c,1,823,10,3,notebook,c1,426916,522319,35,Woman
534800,OSSe5,v1,jsons/s19.json,0.6507645155047649,1920,969,1920,1080,6-15-2023,9-13-35,1,12,c8,1,clipboard,R,classroom,scaled,c8_clipboard_R.png,m,1,1620,12,4,clipboard,c8,426916,522319,35,Woman
534800,OSSe5,v1,jsons/s19.json,-0.027670733679195005,1920,969,1920,1080,6-15-2023,9-13-35,1,13,c6,0,toaster,L,kitchen,scaled,c6_toaster_L.png,c,1,1297,13,2,toaster,c6,426916,522319,35,Woman
534800,OSSe5,v1,jsons/s19.json,-0.49606411005078344,1920,969,1920,1080,6-15-2023,9-13-35,1,14,k8,0,clipboard,R,classroom,scaled,k8_clipboard_R.png,m,1,1074,14,3,clipboard,k8,426916,522319,35,Woman
534800,OSSe5,v1,jsons/s19.json,-0.5632775093507423,1920,969,1920,1080,6-15-2023,9-13-35,1,15,c9,1,eraser,L,classroom,misscaled,c9_eraser_L.png,c,1,1042,15,2,eraser,c9,426916,522319,35,Woman
534800,OSSe5,v1,jsons/s19.json,-0.7124072390475261,1920,969,1920,1080,6-15-2023,9-13-35,1,16,c3,0,saltshaker,L,kitchen,misscaled,c3_saltshaker_L.png,c,1,971,16,2,saltshaker,c3,426916,522319,35,Woman
534800,OSSe5,v1,jsons/s19.json,-0.7313110076006395,1920,969,1920,1080,6-15-2023,9-13-35,1,17,c11,0,kettle,R,kitchen,scaled,c11_kettle_R.png,m,1,962,17,1,kettle,c11,426916,522319,35,Woman
534800,OSSe5,v1,jsons/s19.json,0.5772498600204349,1920,969,1920,1080,6-15-2023,9-13-35,1,18,c5,0,spoon,L,kitchen,misscaled,c5_spoon_L.png,c,1,1585,18,2,spoon,c5,426916,522319,35,Woman
534800,OSSe5,v1,jsons/s19.json,-0.19150339447284478,1920,969,1920,1080,6-15-2023,9-13-35,1,19,k5,1,spoon,L,kitchen,misscaled,k5_spoon_L.png,c,1,1219,19,1,spoon,k5,426916,522319,35,Woman
534800,OSSe5,v1,jsons/s19.json,-0.6998047266787838,1920,969,1920,1080,6-15-2023,9-13-35,1,20,k6,1,toaster,L,kitchen,scaled,k6_toaster_L.png,c,1,977,20,2,toaster,k6,426916,522319,35,Woman
534800,OSSe5,v1,jsons/s19.json,-0.7775202196193612,1920,969,1920,1080,6-15-2023,9-13-35,1,21,k9,0,eraser,R,classroom,misscaled,k9_eraser_R.png,m,1,940,21,2,eraser,k9,426916,522319,35,Woman
534800,OSSe5,v1,jsons/s19.json,-0.3637377301789894,1920,969,1920,1080,6-15-2023,9-13-35,1,22,k2,1,pot,L,kitchen,scaled,k2_pot_L.png,c,1,1137,22,3,pot,k2,426916,522319,35,Woman
534800,OSSe5,v1,jsons/s19.json,1.1485637540700853,1920,969,1920,1080,6-15-2023,9-13-35,1,23,c10,1,flashdrive,R,classroom,misscaled,c10_flashdrive_R.png,m,1,1857,23,1,flashdrive,c10,426916,522319,35,Woman
442161,OSSe5,v1,jsons/s20.json,-1.2965059074674443,1366,625,1366,768,6-15-2023,8-10-2,1,0,c2,1,notebook,L,classroom,scaled,c2_notebook_L.png,c,1,587,0,2,notebook,c2,206262,336604,1997,Woman
442161,OSSe5,v1,jsons/s20.json,0.49261180167177954,1366,625,1366,768,6-15-2023,8-10-2,1,1,k0,1,kettle,L,kitchen,scaled,k0_kettle_L.png,c,1,1327,1,2,kettle,k0,206262,336604,1997,Woman
442161,OSSe5,v1,jsons/s20.json,-0.31007344080689925,1366,625,1366,768,6-15-2023,8-10-2,1,2,c11,1,flashdrive,L,classroom,misscaled,c11_flashdrive_L.png,c,1,995,2,1,flashdrive,c11,206262,336604,1997,Woman
442161,OSSe5,v1,jsons/s20.json,0.28710503778416596,1366,625,1366,768,6-15-2023,8-10-2,1,3,k5,1,sponge,R,kitchen,misscaled,k5_sponge_R.png,m,1,1242,3,3,sponge,k5,206262,336604,1997,Woman
442161,OSSe5,v1,jsons/s20.json,1.6289433196385839,1366,625,1366,768,6-15-2023,8-10-2,1,4,c7,0,toaster,R,kitchen,scaled,c7_toaster_R.png,m,1,1797,4,3,toaster,c7,206262,336604,1997,Woman
442161,OSSe5,v1,jsons/s20.json,-0.12149076335708918,1366,625,1366,768,6-15-2023,8-10-2,1,5,k6,1,spoon,R,kitchen,misscaled,k6_spoon_R.png,m,1,1073,5,1,spoon,k6,206262,336604,1997,Woman
442161,OSSe5,v1,jsons/s20.json,0.6618526660498142,1366,625,1366,768,6-15-2023,8-10-2,1,6,c1,1,laptop,R,classroom,scaled,c1_laptop_R.png,m,1,1397,6,3,laptop,c1,206262,336604,1997,Woman
442161,OSSe5,v1,jsons/s20.json,-0.15775666286666803,1366,625,1366,768,6-15-2023,8-10-2,1,7,k4,1,saltshaker,L,kitchen,misscaled,k4_saltshaker_L.png,c,1,1058,7,2,saltshaker,k4,206262,336604,1997,Woman
442161,OSSe5,v1,jsons/s20.json,-0.5881120037136706,1366,625,1366,768,6-15-2023,8-10-2,1,8,c3,0,pot,L,kitchen,scaled,c3_pot_L.png,c,1,880,8,4,pot,c3,206262,336604,1997,Woman
442161,OSSe5,v1,jsons/s20.json,-0.8057074007711437,1366,625,1366,768,6-15-2023,8-10-2,1,9,c9,1,clipboard,R,classroom,scaled,c9_clipboard_R.png,m,1,790,9,3,clipboard,c9,206262,336604,1997,Woman
442161,OSSe5,v1,jsons/s20.json,-0.7500996881897894,1366,625,1366,768,6-15-2023,8-10-2,1,10,c8,1,binderclip,R,classroom,misscaled,c8_binderclip_R.png,m,1,813,10,4,binderclip,c8,206262,336604,1997,Woman
442161,OSSe5,v1,jsons/s20.json,-1.3110122672712758,1366,625,1366,768,6-15-2023,8-10-2,1,11,c5,0,sponge,R,kitchen,misscaled,c5_sponge_R.png,m,1,581,11,3,sponge,c5,206262,336604,1997,Woman
442161,OSSe5,v1,jsons/s20.json,-1.2167209285463707,1366,625,1366,768,6-15-2023,8-10-2,1,12,k2,0,notebook,L,classroom,scaled,k2_notebook_L.png,c,1,620,12,2,notebook,k2,206262,336604,1997,Woman
442161,OSSe5,v1,jsons/s20.json,1.68696875885391,1366,625,1366,768,6-15-2023,8-10-2,1,13,k10,0,eraser,R,classroom,misscaled,k10_eraser_R.png,m,1,1821,13,1,eraser,k10,206262,336604,1997,Woman
442161,OSSe5,v1,jsons/s20.json,1.080119373726957,1366,625,1366,768,6-15-2023,8-10-2,1,14,k7,1,toaster,L,kitchen,scaled,k7_toaster_L.png,c,1,1570,14,2,toaster,k7,206262,336604,1997,Woman
442161,OSSe5,v1,jsons/s20.json,1.3073856773203179,1366,625,1366,768,6-15-2023,8-10-2,1,15,c4,0,saltshaker,R,kitchen,misscaled,c4_saltshaker_R.png,m,1,1664,15,2,saltshaker,c4,206262,336604,1997,Woman
442161,OSSe5,v1,jsons/s20.json,0.062256460824777045,1366,625,1366,768,6-15-2023,8-10-2,1,16,k1,0,laptop,L,classroom,scaled,k1_laptop_L.png,c,1,1149,16,2,laptop,k1,206262,336604,1997,Woman
442161,OSSe5,v1,jsons/s20.json,-0.5179979313284847,1366,625,1366,768,6-15-2023,8-10-2,1,17,k8,0,binderclip,L,classroom,misscaled,k8_binderclip_L.png,c,1,909,17,2,binderclip,k8,206262,336604,1997,Woman
442161,OSSe5,v1,jsons/s20.json,0.3596368368033237,1366,625,1366,768,6-15-2023,8-10-2,1,18,c0,0,kettle,R,kitchen,scaled,c0_kettle_R.png,m,1,1272,18,2,kettle,c0,206262,336604,1997,Woman
442161,OSSe5,v1,jsons/s20.json,1.242107058203076,1366,625,1366,768,6-15-2023,8-10-2,1,19,c10,1,eraser,R,classroom,misscaled,c10_eraser_R.png,m,1,1637,19,3,eraser,c10,206262,336604,1997,Woman
442161,OSSe5,v1,jsons/s20.json,-1.0136318912927291,1366,625,1366,768,6-15-2023,8-10-2,1,20,k11,0,flashdrive,L,classroom,misscaled,k11_flashdrive_L.png,c,1,704,20,1,flashdrive,k11,206262,336604,1997,Woman
442161,OSSe5,v1,jsons/s20.json,1.3581579366337284,1366,625,1366,768,6-15-2023,8-10-2,1,21,c6,0,spoon,R,kitchen,misscaled,c6_spoon_R.png,m,1,1685,21,1,spoon,c6,206262,336604,1997,Woman
442161,OSSe5,v1,jsons/s20.json,-1.434316325603844,1366,625,1366,768,6-15-2023,8-10-2,1,22,k9,0,clipboard,L,classroom,scaled,k9_clipboard_L.png,c,1,530,22,3,clipboard,k9,206262,336604,1997,Woman
442161,OSSe5,v1,jsons/s20.json,-0.6437197162950248,1366,625,1366,768,6-15-2023,8-10-2,1,23,k3,1,pot,L,kitchen,scaled,k3_pot_L.png,c,1,857,23,3,pot,k3,206262,336604,1997,Woman
909703,OSSe5,v1,jsons/s0.json,1.5902772581750257,1280,657,1280,800,6-15-2023,9-47-6,1,2,c6,1,notebook,R,classroom,scaled,c6_notebook_R.png,m,1,4170,2,2,notebook,c6,254378,350875,31,Man
909703,OSSe5,v1,jsons/s0.json,1.8100852142787989,1280,657,1280,800,6-15-2023,9-47-6,1,3,k0,0,binderclip,L,classroom,misscaled,k0_binderclip_L.png,c,1,4440,3,3,binderclip,k0,254378,350875,31,Man
909703,OSSe5,v1,jsons/s0.json,0.3585386004527708,1280,657,1280,800,6-15-2023,9-47-6,1,4,c9,0,sponge,R,kitchen,misscaled,c9_sponge_R.png,m,1,2657,4,2,sponge,c9,254378,350875,31,Man
909703,OSSe5,v1,jsons/s0.json,0.8307186543053205,1280,657,1280,800,6-15-2023,9-47-6,1,5,k1,0,clipboard,R,classroom,scaled,k1_clipboard_R.png,m,1,3237,5,4,clipboard,k1,254378,350875,31,Man
909703,OSSe5,v1,jsons/s0.json,-0.6460651692955851,1280,657,1280,800,6-15-2023,9-47-6,1,6,c7,0,pot,L,kitchen,scaled,c7_pot_L.png,c,1,1423,6,3,pot,c7,254378,350875,31,Man
909703,OSSe5,v1,jsons/s0.json,-0.7461999048539706,1280,657,1280,800,6-15-2023,9-47-6,1,7,c5,1,laptop,R,classroom,scaled,c5_laptop_R.png,m,1,1300,7,2,laptop,c5,254378,350875,31,Man
909703,OSSe5,v1,jsons/s0.json,-0.5304624664558228,1280,657,1280,800,6-15-2023,9-47-6,1,8,k9,1,sponge,R,kitchen,misscaled,k9_sponge_R.png,m,1,1565,8,2,sponge,k9,254378,350875,31,Man
909703,OSSe5,v1,jsons/s0.json,0.5685773140630429,1280,657,1280,800,6-15-2023,9-47-6,1,9,c11,0,toaster,R,kitchen,scaled,c11_toaster_R.png,m,1,2915,9,3,toaster,c11,254378,350875,31,Man
909703,OSSe5,v1,jsons/s0.json,-0.7885332889924751,1280,657,1280,800,6-15-2023,9-47-6,1,10,c1,1,clipboard,L,classroom,scaled,c1_clipboard_L.png,c,1,1248,10,3,clipboard,c1,254378,350875,31,Man
909703,OSSe5,v1,jsons/s0.json,-0.26913522975467036,1280,657,1280,800,6-15-2023,9-47-6,1,11,k4,1,kettle,L,kitchen,scaled,k4_kettle_L.png,c,1,1886,11,2,kettle,k4,254378,350875,31,Man
909703,OSSe5,v1,jsons/s0.json,-0.6289689949319582,1280,657,1280,800,6-15-2023,9-47-6,1,12,k8,1,saltshaker,L,kitchen,misscaled,k8_saltshaker_L.png,c,1,1444,12,2,saltshaker,k8,254378,350875,31,Man
909703,OSSe5,v1,jsons/s0.json,-0.6786293109405885,1280,657,1280,800,6-15-2023,9-47-6,1,13,c3,1,flashdrive,L,classroom,misscaled,c3_flashdrive_L.png,c,1,1383,13,1,flashdrive,c3,254378,350875,31,Man
909703,OSSe5,v1,jsons/s0.json,-0.589077921416829,1280,657,1280,800,6-15-2023,9-47-6,1,14,k5,0,laptop,L,classroom,scaled,k5_laptop_L.png,c,1,1493,14,3,laptop,k5,254378,350875,31,Man
909703,OSSe5,v1,jsons/s0.json,-0.78771918545135,1280,657,1280,800,6-15-2023,9-47-6,1,15,k6,0,notebook,R,classroom,scaled,k6_notebook_R.png,m,1,1249,15,2,notebook,k6,254378,350875,31,Man
909703,OSSe5,v1,jsons/s0.json,-0.5304624664558228,1280,657,1280,800,6-15-2023,9-47-6,1,16,k3,0,flashdrive,R,classroom,misscaled,k3_flashdrive_R.png,m,1,1565,16,3,flashdrive,k3,254378,350875,31,Man
909703,OSSe5,v1,jsons/s0.json,-0.6957254853042153,1280,657,1280,800,6-15-2023,9-47-6,1,17,c8,0,saltshaker,R,kitchen,misscaled,c8_saltshaker_R.png,m,1,1362,17,3,saltshaker,c8,254378,350875,31,Man
909703,OSSe5,v1,jsons/s0.json,2.153636908633585,1280,657,1280,800,6-15-2023,9-47-6,1,18,c2,1,eraser,R,classroom,misscaled,c2_eraser_R.png,m,1,4862,18,3,eraser,c2,254378,350875,31,Man
909703,OSSe5,v1,jsons/s0.json,-0.5964048532869548,1280,657,1280,800,6-15-2023,9-47-6,1,19,c0,1,binderclip,L,classroom,misscaled,c0_binderclip_L.png,c,1,1484,19,1,binderclip,c0,254378,350875,31,Man
909703,OSSe5,v1,jsons/s0.json,-0.4604495619190655,1280,657,1280,800,6-15-2023,9-47-6,1,20,c10,0,spoon,L,kitchen,misscaled,c10_spoon_L.png,c,1,1651,20,3,spoon,c10,254378,350875,31,Man
909703,OSSe5,v1,jsons/s0.json,-0.4246290061095617,1280,657,1280,800,6-15-2023,9-47-6,1,21,k10,1,spoon,R,kitchen,misscaled,k10_spoon_R.png,m,1,1695,21,3,spoon,k10,254378,350875,31,Man
909703,OSSe5,v1,jsons/s0.json,-0.8048153598149768,1280,657,1280,800,6-15-2023,9-47-6,1,22,c4,0,kettle,L,kitchen,scaled,c4_kettle_L.png,c,1,1228,22,3,kettle,c4,254378,350875,31,Man
909703,OSSe5,v1,jsons/s0.json,1.8654442550753048,1280,657,1280,800,6-15-2023,9-47-6,1,23,k11,1,toaster,L,kitchen,scaled,k11_toaster_L.png,c,1,4508,23,2,toaster,k11,254378,350875,31,Man
832870,OSSe5,v1,jsons/s3.json,1.3480475078378094,1280,657,1280,800,6-15-2023,9-25-36,1,0,k3,0,binderclip,L,classroom,misscaled,k3_binderclip_L.png,c,1,1905,0,2,binderclip,k3,176487,223853,30,Woman
832870,OSSe5,v1,jsons/s3.json,0.9425556689066297,1280,657,1280,800,6-15-2023,9-25-36,1,1,k4,0,clipboard,L,classroom,scaled,k4_clipboard_L.png,c,1,1778,1,1,clipboard,k4,176487,223853,30,Woman
832870,OSSe5,v1,jsons/s3.json,-0.39205526552827663,1280,657,1280,800,6-15-2023,9-25-36,1,2,c6,1,flashdrive,R,classroom,misscaled,c6_flashdrive_R.png,c,0,1360,2,2,flashdrive,c6,176487,223853,30,Woman
832870,OSSe5,v1,jsons/s3.json,1.0958124269278628,1280,657,1280,800,6-15-2023,9-25-36,1,3,c11,0,saltshaker,L,kitchen,misscaled,c11_saltshaker_L.png,c,1,1826,3,2,saltshaker,c11,176487,223853,30,Woman
832870,OSSe5,v1,jsons/s3.json,-0.7113401780725126,1280,657,1280,800,6-15-2023,9-25-36,1,4,c5,1,eraser,R,classroom,misscaled,c5_eraser_R.png,m,1,1260,4,2,eraser,c5,176487,223853,30,Woman
832870,OSSe5,v1,jsons/s3.json,-0.43994800240991205,1280,657,1280,800,6-15-2023,9-25-36,1,5,c3,1,binderclip,R,classroom,misscaled,c3_binderclip_R.png,m,1,1345,5,3,binderclip,c3,176487,223853,30,Woman
832870,OSSe5,v1,jsons/s3.json,1.6673324203820452,1280,657,1280,800,6-15-2023,9-25-36,1,6,k7,1,kettle,L,kitchen,scaled,k7_kettle_L.png,c,1,2005,6,2,kettle,k7,176487,223853,30,Woman
832870,OSSe5,v1,jsons/s3.json,-0.6379046481873383,1280,657,1280,800,6-15-2023,9-25-36,1,7,c1,0,spoon,R,kitchen,misscaled,c1_spoon_R.png,m,1,1283,7,3,spoon,c1,176487,223853,30,Woman
832870,OSSe5,v1,jsons/s3.json,-1.0114679958640944,1280,657,1280,800,6-15-2023,9-25-36,1,8,c0,0,sponge,R,kitchen,misscaled,c0_sponge_R.png,m,1,1166,8,2,sponge,c0,176487,223853,30,Woman
832870,OSSe5,v1,jsons/s3.json,0.9489413671575143,1280,657,1280,800,6-15-2023,9-25-36,1,9,k10,1,pot,R,kitchen,scaled,k10_pot_R.png,m,1,1780,9,3,pot,k10,176487,223853,30,Woman
832870,OSSe5,v1,jsons/s3.json,-0.1334344863674455,1280,657,1280,800,6-15-2023,9-25-36,1,10,k2,1,toaster,R,kitchen,scaled,k2_toaster_R.png,m,1,1441,10,2,toaster,k2,176487,223853,30,Woman
832870,OSSe5,v1,jsons/s3.json,2.3186736419722864,1280,657,1280,800,6-15-2023,9-25-36,1,11,k6,0,flashdrive,R,classroom,misscaled,k6_flashdrive_R.png,m,1,2209,11,2,flashdrive,k6,176487,223853,30,Woman
832870,OSSe5,v1,jsons/s3.json,0.1092220471661738,1280,657,1280,800,6-15-2023,9-25-36,1,12,c8,1,laptop,L,classroom,scaled,c8_laptop_L.png,c,1,1517,12,2,laptop,c8,176487,223853,30,Woman
832870,OSSe5,v1,jsons/s3.json,-0.05042040910594417,1280,657,1280,800,6-15-2023,9-25-36,1,13,k9,0,notebook,R,classroom,scaled,k9_notebook_R.png,m,1,1467,13,3,notebook,k9,176487,223853,30,Woman
832870,OSSe5,v1,jsons/s3.json,-0.28988409351412114,1280,657,1280,800,6-15-2023,9-25-36,1,14,c2,0,toaster,L,kitchen,scaled,c2_toaster_L.png,c,1,1392,14,2,toaster,c2,176487,223853,30,Woman
832870,OSSe5,v1,jsons/s3.json,-2.148122284521574,1280,657,1280,800,6-15-2023,9-25-36,1,15,k1,1,spoon,R,kitchen,misscaled,k1_spoon_R.png,m,1,810,15,3,spoon,k1,176487,223853,30,Woman
832870,OSSe5,v1,jsons/s3.json,-0.7400758202014939,1280,657,1280,800,6-15-2023,9-25-36,1,16,k0,1,sponge,L,kitchen,misscaled,k0_sponge_L.png,c,1,1251,16,2,sponge,k0,176487,223853,30,Woman
832870,OSSe5,v1,jsons/s3.json,0.1571147840478092,1280,657,1280,800,6-15-2023,9-25-36,1,17,k8,0,laptop,R,classroom,scaled,k8_laptop_R.png,m,1,1532,17,1,laptop,k8,176487,223853,30,Woman
832870,OSSe5,v1,jsons/s3.json,0.8403844968924741,1280,657,1280,800,6-15-2023,9-25-36,1,18,c9,1,notebook,L,classroom,scaled,c9_notebook_L.png,c,1,1746,18,2,notebook,c9,176487,223853,30,Woman
832870,OSSe5,v1,jsons/s3.json,-0.724111574574282,1280,657,1280,800,6-15-2023,9-25-36,1,19,k5,0,eraser,L,classroom,misscaled,k5_eraser_L.png,c,1,1256,19,3,eraser,k5,176487,223853,30,Woman
832870,OSSe5,v1,jsons/s3.json,-0.590011911305703,1280,657,1280,800,6-15-2023,9-25-36,1,20,c10,0,pot,R,kitchen,scaled,c10_pot_R.png,m,1,1298,20,2,pot,c10,176487,223853,30,Woman
832870,OSSe5,v1,jsons/s3.json,-0.4559122480371238,1280,657,1280,800,6-15-2023,9-25-36,1,21,c7,0,kettle,L,kitchen,scaled,c7_kettle_L.png,c,1,1340,21,3,kettle,c7,176487,223853,30,Woman
832870,OSSe5,v1,jsons/s3.json,-0.38566956727739193,1280,657,1280,800,6-15-2023,9-25-36,1,22,c4,1,clipboard,L,classroom,scaled,c4_clipboard_L.png,c,1,1362,22,2,clipboard,c4,176487,223853,30,Woman
832870,OSSe5,v1,jsons/s3.json,-0.7177258763233973,1280,657,1280,800,6-15-2023,9-25-36,1,23,k11,1,saltshaker,L,kitchen,misscaled,k11_saltshaker_L.png,c,1,1258,23,3,saltshaker,k11,176487,223853,30,Woman
125559,OSSe5,v1,jsons/s13.json,3.8978699534051127,1280,657,1280,800,6-15-2023,9-32-4,1,0,c11,0,spoon,R,kitchen,misscaled,c11_spoon_R.png,m,1,4615,0,2,spoon,c11,213521,335300,31,Man
125559,OSSe5,v1,jsons/s13.json,-0.4289861810455724,1280,657,1280,800,6-15-2023,9-32-4,1,1,c9,0,saltshaker,L,kitchen,misscaled,c9_saltshaker_L.png,c,1,960,1,3,saltshaker,c9,213521,335300,31,Man
125559,OSSe5,v1,jsons/s13.json,-0.5390812892545775,1280,657,1280,800,6-15-2023,9-32-4,1,2,k0,1,toaster,L,kitchen,scaled,k0_toaster_L.png,c,1,867,2,2,toaster,k0,213521,335300,31,Man
125559,OSSe5,v1,jsons/s13.json,0.11438644979242064,1280,657,1280,800,6-15-2023,9-32-4,1,3,c6,1,laptop,L,classroom,scaled,c6_laptop_L.png,c,1,1419,3,3,laptop,c6,213521,335300,31,Man
125559,OSSe5,v1,jsons/s13.json,-0.2632516095481453,1280,657,1280,800,6-15-2023,9-32-4,1,4,c10,0,sponge,L,kitchen,misscaled,c10_sponge_L.png,c,1,1100,4,2,sponge,c10,213521,335300,31,Man
125559,OSSe5,v1,jsons/s13.json,1.5704830422341014,1280,657,1280,800,6-15-2023,9-32-4,1,5,c4,1,flashdrive,R,classroom,misscaled,c4_flashdrive_R.png,m,1,2649,5,1,flashdrive,c4,213521,335300,31,Man
125559,OSSe5,v1,jsons/s13.json,1.0981395134664342,1280,657,1280,800,6-15-2023,9-32-4,1,6,k3,0,eraser,L,classroom,misscaled,k3_eraser_L.png,c,1,2250,6,1,eraser,k3,213521,335300,31,Man
125559,OSSe5,v1,jsons/s13.json,-0.4585816402415415,1280,657,1280,800,6-15-2023,9-32-4,1,7,k10,1,sponge,L,kitchen,misscaled,k10_sponge_L.png,c,1,935,7,2,sponge,k10,213521,335300,31,Man
125559,OSSe5,v1,jsons/s13.json,-0.576963477025418,1280,657,1280,800,6-15-2023,9-32-4,1,8,c3,1,eraser,R,classroom,misscaled,c3_eraser_R.png,m,1,835,8,1,eraser,c3,213521,335300,31,Man
125559,OSSe5,v1,jsons/s13.json,-0.18038432379943178,1280,657,1280,800,6-15-2023,9-32-4,1,9,c7,1,notebook,R,classroom,scaled,c7_notebook_R.png,m,1,1170,9,3,notebook,c7,213521,335300,31,Man
125559,OSSe5,v1,jsons/s13.json,0.16055536613813248,1280,657,1280,800,6-15-2023,9-32-4,1,10,k9,1,saltshaker,R,kitchen,misscaled,k9_saltshaker_R.png,m,1,1458,10,3,saltshaker,k9,213521,335300,31,Man
125559,OSSe5,v1,jsons/s13.json,0.6530238071590586,1280,657,1280,800,6-15-2023,9-32-4,1,11,k2,0,clipboard,L,classroom,scaled,k2_clipboard_L.png,c,1,1874,11,2,clipboard,k2,213521,335300,31,Man
125559,OSSe5,v1,jsons/s13.json,-0.49409619127670446,1280,657,1280,800,6-15-2023,9-32-4,1,12,k1,0,binderclip,L,classroom,misscaled,k1_binderclip_L.png,c,1,905,12,1,binderclip,k1,213521,335300,31,Man
125559,OSSe5,v1,jsons/s13.json,0.15108481919542235,1280,657,1280,800,6-15-2023,9-32-4,1,13,c8,0,pot,R,kitchen,scaled,c8_pot_R.png,m,1,1450,13,2,pot,c8,213521,335300,31,Man
125559,OSSe5,v1,jsons/s13.json,-0.3212587095722448,1280,657,1280,800,6-15-2023,9-32-4,1,14,k8,1,pot,R,kitchen,scaled,k8_pot_R.png,m,1,1051,14,2,pot,k8,213521,335300,31,Man
125559,OSSe5,v1,jsons/s13.json,-0.4147803606315072,1280,657,1280,800,6-15-2023,9-32-4,1,15,k5,1,kettle,R,kitchen,scaled,k5_kettle_R.png,m,1,972,15,1,kettle,k5,213521,335300,31,Man
125559,OSSe5,v1,jsons/s13.json,-0.6065589362213871,1280,657,1280,800,6-15-2023,9-32-4,1,16,k11,1,spoon,L,kitchen,misscaled,k11_spoon_L.png,c,1,810,16,3,spoon,k11,213521,335300,31,Man
125559,OSSe5,v1,jsons/s13.json,-0.5947207525429995,1280,657,1280,800,6-15-2023,9-32-4,1,17,c5,0,kettle,L,kitchen,scaled,c5_kettle_L.png,c,1,820,17,1,kettle,c5,213521,335300,31,Man
125559,OSSe5,v1,jsons/s13.json,-0.48344182596615554,1280,657,1280,800,6-15-2023,9-32-4,1,18,k4,0,flashdrive,R,classroom,misscaled,k4_flashdrive_R.png,m,1,914,18,2,flashdrive,k4,213521,335300,31,Man
125559,OSSe5,v1,jsons/s13.json,-0.3875525381712156,1280,657,1280,800,6-15-2023,9-32-4,1,19,k7,0,notebook,R,classroom,scaled,k7_notebook_R.png,m,1,995,19,2,notebook,k7,213521,335300,31,Man
125559,OSSe5,v1,jsons/s13.json,-0.4479272749309926,1280,657,1280,800,6-15-2023,9-32-4,1,20,c2,1,clipboard,L,classroom,scaled,c2_clipboard_L.png,c,1,944,20,3,clipboard,c2,213521,335300,31,Man
125559,OSSe5,v1,jsons/s13.json,-0.49172855454102693,1280,657,1280,800,6-15-2023,9-32-4,1,21,c1,1,binderclip,L,classroom,misscaled,c1_binderclip_L.png,c,1,907,21,3,binderclip,c1,213521,335300,31,Man
125559,OSSe5,v1,jsons/s13.json,-0.44674345656315384,1280,657,1280,800,6-15-2023,9-32-4,1,22,c0,0,toaster,R,kitchen,scaled,c0_toaster_R.png,m,1,945,22,1,toaster,c0,213521,335300,31,Man
125559,OSSe5,v1,jsons/s13.json,-0.5094858300586084,1280,657,1280,800,6-15-2023,9-32-4,1,23,k6,0,laptop,R,classroom,scaled,k6_laptop_R.png,m,1,892,23,2,laptop,k6,213521,335300,31,Man
877536,OSSe5,v1,jsons/s22.json,0.7965428545031908,1366,625,1366,768,6-15-2023,9-22-10,2,0,c1,1,flashdrive,R,classroom,misscaled,c1_flashdrive_R.png,m,1,1977,0,4,flashdrive,c1,208482,483054,32,Woman
877536,OSSe5,v1,jsons/s22.json,-0.33352779622054773,1366,625,1366,768,6-15-2023,9-22-10,2,1,k8,1,spoon,R,kitchen,misscaled,k8_spoon_R.png,m,1,1197,1,4,spoon,k8,208482,483054,32,Woman
877536,OSSe5,v1,jsons/s22.json,-0.1118600916555067,1366,625,1366,768,6-15-2023,9-22-10,2,2,c9,0,toaster,R,kitchen,scaled,c9_toaster_R.png,m,1,1350,2,4,toaster,c9,208482,483054,32,Woman
877536,OSSe5,v1,jsons/s22.json,-0.6667537573313936,1366,625,1366,768,6-15-2023,9-22-10,2,3,k9,1,toaster,L,kitchen,scaled,k9_toaster_L.png,c,1,967,3,4,toaster,k9,208482,483054,32,Woman
877536,OSSe5,v1,jsons/s22.json,0.5386549367739274,1366,625,1366,768,6-15-2023,9-22-10,2,4,k11,0,clipboard,L,classroom,scaled,k11_clipboard_L.png,c,1,1799,4,4,clipboard,k11,208482,483054,32,Woman
877536,OSSe5,v1,jsons/s22.json,-0.49289673414312624,1366,625,1366,768,6-15-2023,9-22-10,2,5,c7,0,sponge,L,kitchen,misscaled,c7_sponge_L.png,c,1,1087,5,4,sponge,c7,208482,483054,32,Woman
877536,OSSe5,v1,jsons/s22.json,-0.5870692883701044,1366,625,1366,768,6-15-2023,9-22-10,2,6,k7,1,sponge,L,kitchen,misscaled,k7_sponge_L.png,c,1,1022,6,4,sponge,k7,208482,483054,32,Woman
877536,OSSe5,v1,jsons/s22.json,-0.6493680550125669,1366,625,1366,768,6-15-2023,9-22-10,2,7,k5,1,pot,L,kitchen,scaled,k5_pot_L.png,c,1,979,7,4,pot,k5,208482,483054,32,Woman
877536,OSSe5,v1,jsons/s22.json,-0.7160132472347361,1366,625,1366,768,6-15-2023,9-22-10,2,8,c2,0,kettle,R,kitchen,scaled,c2_kettle_R.png,m,1,933,8,4,kettle,c2,208482,483054,32,Woman
877536,OSSe5,v1,jsons/s22.json,-0.3682992008582012,1366,625,1366,768,6-15-2023,9-22-10,2,9,c6,0,saltshaker,R,kitchen,misscaled,c6_saltshaker_R.png,m,1,1173,9,4,saltshaker,c6,208482,483054,32,Woman
877536,OSSe5,v1,jsons/s22.json,-0.20023741177620932,1366,625,1366,768,6-15-2023,9-22-10,2,10,k6,1,saltshaker,L,kitchen,misscaled,k6_saltshaker_L.png,c,1,1289,10,4,saltshaker,k6,208482,483054,32,Woman
877536,OSSe5,v1,jsons/s22.json,-0.4016217969692858,1366,625,1366,768,6-15-2023,9-22-10,2,11,c0,1,eraser,L,classroom,misscaled,c0_eraser_L.png,c,1,1150,11,4,eraser,c0,208482,483054,32,Woman
877536,OSSe5,v1,jsons/s22.json,-0.7377453751332695,1366,625,1366,768,6-15-2023,9-22-10,2,12,k2,1,kettle,R,kitchen,scaled,k2_kettle_R.png,m,1,918,12,4,kettle,k2,208482,483054,32,Woman
877536,OSSe5,v1,jsons/s22.json,-0.039419665327061926,1366,625,1366,768,6-15-2023,9-22-10,2,13,c5,0,pot,L,kitchen,scaled,c5_pot_L.png,c,1,1400,13,4,pot,c5,208482,483054,32,Woman
877536,OSSe5,v1,jsons/s22.json,-0.4813062659305751,1366,625,1366,768,6-15-2023,9-22-10,2,14,k3,0,laptop,R,classroom,scaled,k3_laptop_R.png,m,1,1095,14,4,laptop,k3,208482,483054,32,Woman
877536,OSSe5,v1,jsons/s22.json,3.8260014835587515,1366,625,1366,768,6-15-2023,9-22-10,2,15,k4,0,notebook,L,classroom,scaled,k4_notebook_L.png,c,1,4068,15,4,notebook,k4,208482,483054,32,Woman
877536,OSSe5,v1,jsons/s22.json,-0.7696191627177853,1366,625,1366,768,6-15-2023,9-22-10,2,16,k1,0,flashdrive,R,classroom,misscaled,k1_flashdrive_R.png,m,1,896,16,4,flashdrive,k1,208482,483054,32,Woman
877536,OSSe5,v1,jsons/s22.json,-0.16256839008541804,1366,625,1366,768,6-15-2023,9-22-10,2,17,c11,1,clipboard,R,classroom,scaled,c11_clipboard_R.png,m,1,1315,17,4,clipboard,c11,208482,483054,32,Woman
877536,OSSe5,v1,jsons/s22.json,-0.13793864513374682,1366,625,1366,768,6-15-2023,9-22-10,2,18,k10,0,binderclip,R,classroom,misscaled,k10_binderclip_R.png,m,1,1332,18,4,binderclip,k10,208482,483054,32,Woman
877536,OSSe5,v1,jsons/s22.json,-0.21907192262160496,1366,625,1366,768,6-15-2023,9-22-10,2,19,c8,0,spoon,R,kitchen,misscaled,c8_spoon_R.png,m,1,1276,19,4,spoon,c8,208482,483054,32,Woman
877536,OSSe5,v1,jsons/s22.json,0.9588094094789071,1366,625,1366,768,6-15-2023,9-22-10,2,20,c10,1,binderclip,L,classroom,misscaled,c10_binderclip_L.png,c,1,2089,20,4,binderclip,c10,208482,483054,32,Woman
877536,OSSe5,v1,jsons/s22.json,-0.5436050325730376,1366,625,1366,768,6-15-2023,9-22-10,2,21,c3,1,laptop,L,classroom,scaled,c3_laptop_L.png,c,1,1052,21,4,laptop,c3,208482,483054,32,Woman
877536,OSSe5,v1,jsons/s22.json,-0.02782919711451076,1366,625,1366,768,6-15-2023,9-22-10,2,22,c4,1,notebook,L,classroom,scaled,c4_notebook_L.png,c,1,1408,22,4,notebook,c4,208482,483054,32,Woman
877536,OSSe5,v1,jsons/s22.json,1.526742351893914,1366,625,1366,768,6-15-2023,9-22-10,2,23,k0,0,eraser,R,classroom,misscaled,k0_eraser_R.png,m,1,2481,23,4,eraser,k0,208482,483054,32,Woman
432003,OSSe5,v1,jsons/s15.json,0.015280343056350641,1366,625,1366,768,6-15-2023,8-16-13,1,0,k8,0,laptop,R,classroom,scaled,k8_laptop_R.png,m,1,1082,0,3,laptop,k8,208926,249732,1997,Woman
432003,OSSe5,v1,jsons/s15.json,-0.3514478902960608,1366,625,1366,768,6-15-2023,8-16-13,1,1,c11,0,saltshaker,L,kitchen,misscaled,c11_saltshaker_L.png,c,1,913,1,2,saltshaker,c11,208926,249732,1997,Woman
432003,OSSe5,v1,jsons/s15.json,1.425773548257933,1366,625,1366,768,6-15-2023,8-16-13,1,2,c2,0,toaster,R,kitchen,scaled,c2_toaster_R.png,m,1,1732,2,3,toaster,c2,208926,249732,1997,Woman
432003,OSSe5,v1,jsons/s15.json,0.4297483464309695,1366,625,1366,768,6-15-2023,8-16-13,1,3,c4,1,clipboard,R,classroom,scaled,c4_clipboard_R.png,c,0,1273,3,3,clipboard,c4,208926,249732,1997,Woman
432003,OSSe5,v1,jsons/s15.json,-0.14529888338198335,1366,625,1366,768,6-15-2023,8-16-13,1,4,c9,1,notebook,R,classroom,scaled,c9_notebook_R.png,m,1,1008,4,2,notebook,c9,208926,249732,1997,Woman
432003,OSSe5,v1,jsons/s15.json,-0.5402369808384264,1366,625,1366,768,6-15-2023,8-16-13,1,5,c8,1,laptop,R,classroom,scaled,c8_laptop_R.png,m,1,826,5,3,laptop,c8,208926,249732,1997,Woman
432003,OSSe5,v1,jsons/s15.json,0.7639267365864213,1366,625,1366,768,6-15-2023,8-16-13,1,6,k7,1,kettle,L,kitchen,scaled,k7_kettle_L.png,c,1,1427,6,4,kettle,k7,208926,249732,1997,Woman
432003,OSSe5,v1,jsons/s15.json,-0.6682663640798009,1366,625,1366,768,6-15-2023,8-16-13,1,7,c5,1,eraser,L,classroom,misscaled,c5_eraser_L.png,c,1,767,7,1,eraser,c5,208926,249732,1997,Woman
432003,OSSe5,v1,jsons/s15.json,0.08905998763612573,1366,625,1366,768,6-15-2023,8-16-13,1,8,k5,0,eraser,R,classroom,misscaled,k5_eraser_R.png,c,0,1116,8,1,eraser,k5,208926,249732,1997,Woman
432003,OSSe5,v1,jsons/s15.json,-0.7897857786817833,1366,625,1366,768,6-15-2023,8-16-13,1,9,k0,1,sponge,L,kitchen,misscaled,k0_sponge_L.png,c,1,711,9,2,sponge,k0,208926,249732,1997,Woman
432003,OSSe5,v1,jsons/s15.json,-1.0480145347109961,1366,625,1366,768,6-15-2023,8-16-13,1,10,c0,0,sponge,L,kitchen,misscaled,c0_sponge_L.png,c,1,592,10,2,sponge,c0,208926,249732,1997,Woman
432003,OSSe5,v1,jsons/s15.json,-0.1322789461031995,1366,625,1366,768,6-15-2023,8-16-13,1,11,c3,1,binderclip,R,classroom,misscaled,c3_binderclip_R.png,m,1,1014,11,4,binderclip,c3,208926,249732,1997,Woman
432003,OSSe5,v1,jsons/s15.json,3.2312048509159585,1366,625,1366,768,6-15-2023,8-16-13,1,12,c7,0,kettle,R,kitchen,scaled,c7_kettle_R.png,m,1,2564,12,3,kettle,c7,208926,249732,1997,Woman
432003,OSSe5,v1,jsons/s15.json,0.9049760571065796,1366,625,1366,768,6-15-2023,8-16-13,1,13,c6,1,flashdrive,L,classroom,misscaled,c6_flashdrive_L.png,c,1,1492,13,1,flashdrive,c6,208926,249732,1997,Woman
432003,OSSe5,v1,jsons/s15.json,-0.5858067613141699,1366,625,1366,768,6-15-2023,8-16-13,1,14,k3,0,binderclip,L,classroom,misscaled,k3_binderclip_L.png,c,1,805,14,4,binderclip,k3,208926,249732,1997,Woman
432003,OSSe5,v1,jsons/s15.json,0.8876161407348678,1366,625,1366,768,6-15-2023,8-16-13,1,15,k10,1,pot,L,kitchen,scaled,k10_pot_L.png,c,1,1484,15,3,pot,k10,208926,249732,1997,Woman
432003,OSSe5,v1,jsons/s15.json,-0.19520864295065474,1366,625,1366,768,6-15-2023,8-16-13,1,16,c1,0,spoon,L,kitchen,misscaled,c1_spoon_L.png,c,1,985,16,1,spoon,c1,208926,249732,1997,Woman
432003,OSSe5,v1,jsons/s15.json,-0.650906447708089,1366,625,1366,768,6-15-2023,8-16-13,1,17,k9,0,notebook,R,classroom,scaled,k9_notebook_R.png,m,1,775,17,3,notebook,k9,208926,249732,1997,Woman
432003,OSSe5,v1,jsons/s15.json,-0.05198933288403252,1366,625,1366,768,6-15-2023,8-16-13,1,18,k2,1,toaster,L,kitchen,scaled,k2_toaster_L.png,c,1,1051,18,4,toaster,k2,208926,249732,1997,Woman
432003,OSSe5,v1,jsons/s15.json,-0.9286651096554777,1366,625,1366,768,6-15-2023,8-16-13,1,19,k6,0,flashdrive,L,classroom,misscaled,k6_flashdrive_L.png,c,1,647,19,1,flashdrive,k6,208926,249732,1997,Woman
432003,OSSe5,v1,jsons/s15.json,1.0698952626378415,1366,625,1366,768,6-15-2023,8-16-13,1,20,k11,1,saltshaker,R,kitchen,misscaled,k11_saltshaker_R.png,m,1,1568,20,2,saltshaker,k11,208926,249732,1997,Woman
432003,OSSe5,v1,jsons/s15.json,-0.980744858770613,1366,625,1366,768,6-15-2023,8-16-13,1,21,c10,0,pot,R,kitchen,scaled,c10_pot_R.png,m,1,623,21,3,pot,c10,208926,249732,1997,Woman
432003,OSSe5,v1,jsons/s15.json,-1.2020837925099381,1366,625,1366,768,6-15-2023,8-16-13,1,22,k1,1,spoon,L,kitchen,misscaled,k1_spoon_L.png,c,1,521,22,1,spoon,k1,208926,249732,1997,Woman
432003,OSSe5,v1,jsons/s15.json,-0.5467469494778183,1366,625,1366,768,6-15-2023,8-16-13,1,23,k4,0,clipboard,R,classroom,scaled,k4_clipboard_R.png,c,0,823,23,3,clipboard,k4,208926,249732,1997,Woman
781829,OSSe5,v1,jsons/s20.json,1.027439644532702,1920,929,1920,1080,6-15-2023,8-8-19,1,0,c2,1,notebook,L,classroom,scaled,c2_notebook_L.png,c,1,712,0,4,notebook,c2,381014,526414,35,Man
781829,OSSe5,v1,jsons/s20.json,-0.365088145994343,1920,929,1920,1080,6-15-2023,8-8-19,1,1,k0,1,kettle,L,kitchen,scaled,k0_kettle_L.png,c,1,493,1,4,kettle,k0,381014,526414,35,Man
781829,OSSe5,v1,jsons/s20.json,0.18810782558489408,1920,929,1920,1080,6-15-2023,8-8-19,1,2,c11,1,flashdrive,R,classroom,misscaled,c11_flashdrive_R.png,m,1,580,2,1,flashdrive,c11,381014,526414,35,Man
781829,OSSe5,v1,jsons/s20.json,-0.14889661687142278,1920,929,1920,1080,6-15-2023,8-8-19,1,3,k5,1,sponge,L,kitchen,misscaled,k5_sponge_L.png,c,1,527,3,1,sponge,k5,381014,526414,35,Man
781829,OSSe5,v1,jsons/s20.json,1.4343884052346698,1920,929,1920,1080,6-15-2023,8-8-19,1,4,c7,0,toaster,R,kitchen,scaled,c7_toaster_R.png,m,1,776,4,3,toaster,c7,381014,526414,35,Man
781829,OSSe5,v1,jsons/s20.json,2.9540876834810796,1920,929,1920,1080,6-15-2023,8-8-19,1,5,k6,1,spoon,R,kitchen,misscaled,k6_spoon_R.png,c,0,1015,5,4,spoon,k6,381014,526414,35,Man
781829,OSSe5,v1,jsons/s20.json,-0.11710374494158157,1920,929,1920,1080,6-15-2023,8-8-19,1,6,c1,1,laptop,R,classroom,scaled,c1_laptop_R.png,m,1,532,6,3,laptop,c1,381014,526414,35,Man
781829,OSSe5,v1,jsons/s20.json,-0.19976521195916871,1920,929,1920,1080,6-15-2023,8-8-19,1,7,k4,1,saltshaker,L,kitchen,misscaled,k4_saltshaker_L.png,c,1,519,7,1,saltshaker,k4,381014,526414,35,Man
781829,OSSe5,v1,jsons/s20.json,0.19446639997086235,1920,929,1920,1080,6-15-2023,8-8-19,1,8,c3,0,pot,R,kitchen,scaled,c3_pot_R.png,m,1,581,8,4,pot,c3,381014,526414,35,Man
781829,OSSe5,v1,jsons/s20.json,-0.549486803187422,1920,929,1920,1080,6-15-2023,8-8-19,1,9,c9,1,clipboard,R,classroom,scaled,c9_clipboard_R.png,m,1,464,9,4,clipboard,c9,381014,526414,35,Man
781829,OSSe5,v1,jsons/s20.json,-0.2569923814328829,1920,929,1920,1080,6-15-2023,8-8-19,1,10,c8,1,binderclip,L,classroom,misscaled,c8_binderclip_L.png,c,1,510,10,1,binderclip,c8,381014,526414,35,Man
781829,OSSe5,v1,jsons/s20.json,-0.19340663757320048,1920,929,1920,1080,6-15-2023,8-8-19,1,11,c5,0,sponge,R,kitchen,misscaled,c5_sponge_R.png,m,1,520,11,1,sponge,c5,381014,526414,35,Man
781829,OSSe5,v1,jsons/s20.json,0.0037091683918150493,1920,929,1920,1080,6-15-2023,8-8-19,1,12,k2,0,notebook,L,classroom,scaled,k2_notebook_L.png,c,1,551,12,4,notebook,k2,381014,526414,35,Man
781829,OSSe5,v1,jsons/s20.json,-0.4350324642399937,1920,929,1920,1080,6-15-2023,8-8-19,1,13,k10,0,eraser,L,classroom,misscaled,k10_eraser_L.png,c,1,482,13,2,eraser,k10,381014,526414,35,Man
781829,OSSe5,v1,jsons/s20.json,-0.7974712042401836,1920,929,1920,1080,6-15-2023,8-8-19,1,14,k7,1,toaster,R,kitchen,scaled,k7_toaster_R.png,m,1,425,14,3,toaster,k7,381014,526414,35,Man
781829,OSSe5,v1,jsons/s20.json,2.038452971901653,1920,929,1920,1080,6-15-2023,8-8-19,1,15,c4,0,saltshaker,L,kitchen,misscaled,c4_saltshaker_L.png,c,1,871,15,1,saltshaker,c4,381014,526414,35,Man
781829,OSSe5,v1,jsons/s20.json,-0.7529611835384059,1920,929,1920,1080,6-15-2023,8-8-19,1,16,k1,0,laptop,R,classroom,scaled,k1_laptop_R.png,m,1,432,16,4,laptop,k1,381014,526414,35,Man
781829,OSSe5,v1,jsons/s20.json,-0.7529611835384059,1920,929,1920,1080,6-15-2023,8-8-19,1,17,k8,0,binderclip,L,classroom,misscaled,k8_binderclip_L.png,c,1,432,17,1,binderclip,k8,381014,526414,35,Man
781829,OSSe5,v1,jsons/s20.json,-1.1789856673982781,1920,929,1920,1080,6-15-2023,8-8-19,1,18,c0,0,kettle,L,kitchen,scaled,c0_kettle_L.png,c,1,365,18,4,kettle,c0,381014,526414,35,Man
781829,OSSe5,v1,jsons/s20.json,-1.0327384565210085,1920,929,1920,1080,6-15-2023,8-8-19,1,19,c10,1,eraser,R,classroom,misscaled,c10_eraser_R.png,m,1,388,19,1,eraser,c10,381014,526414,35,Man
781829,OSSe5,v1,jsons/s20.json,0.8176066897957501,1920,929,1920,1080,6-15-2023,8-8-19,1,20,k11,0,flashdrive,L,classroom,misscaled,k11_flashdrive_L.png,c,1,679,20,1,flashdrive,k11,381014,526414,35,Man
781829,OSSe5,v1,jsons/s20.json,-0.5240525056435491,1920,929,1920,1080,6-15-2023,8-8-19,1,21,c6,0,spoon,R,kitchen,misscaled,c6_spoon_R.png,m,1,468,21,2,spoon,c6,381014,526414,35,Man
781829,OSSe5,v1,jsons/s20.json,-0.8229055017840565,1920,929,1920,1080,6-15-2023,8-8-19,1,22,k9,0,clipboard,R,classroom,scaled,k9_clipboard_R.png,m,1,421,22,4,clipboard,k9,381014,526414,35,Man
781829,OSSe5,v1,jsons/s20.json,-0.5304110800295173,1920,929,1920,1080,6-15-2023,8-8-19,1,23,k3,1,pot,L,kitchen,scaled,k3_pot_L.png,c,1,467,23,3,pot,k3,381014,526414,35,Man
343647,OSSe5,v1,jsons/s1.json,-0.3977970352400531,1280,657,1280,800,6-15-2023,9-22-27,3,0,c1,1,binderclip,R,classroom,misscaled,c1_binderclip_R.png,m,1,1176,0,2,binderclip,c1,168533,993928,30,Woman
343647,OSSe5,v1,jsons/s1.json,-0.057857022023447675,1280,657,1280,800,6-15-2023,9-22-27,3,1,c4,1,flashdrive,L,classroom,misscaled,c4_flashdrive_L.png,c,1,1353,1,3,flashdrive,c4,168533,993928,30,Woman
343647,OSSe5,v1,jsons/s1.json,-0.38819421000794563,1280,657,1280,800,6-15-2023,9-22-27,3,2,c11,0,spoon,R,kitchen,misscaled,c11_spoon_R.png,m,1,1181,2,2,spoon,c11,168533,993928,30,Woman
343647,OSSe5,v1,jsons/s1.json,0.0669797059939498,1280,657,1280,800,6-15-2023,9-22-27,3,3,c7,1,notebook,L,classroom,scaled,c7_notebook_L.png,c,1,1418,3,1,notebook,c7,168533,993928,30,Woman
343647,OSSe5,v1,jsons/s1.json,-0.3805119498222596,1280,657,1280,800,6-15-2023,9-22-27,3,4,k5,1,kettle,L,kitchen,scaled,k5_kettle_L.png,c,1,1185,4,2,kettle,k5,168533,993928,30,Woman
343647,OSSe5,v1,jsons/s1.json,0.4376487599532992,1280,657,1280,800,6-15-2023,9-22-27,3,5,k6,0,laptop,R,classroom,scaled,k6_laptop_R.png,m,1,1611,5,2,laptop,k6,168533,993928,30,Woman
343647,OSSe5,v1,jsons/s1.json,-0.4880635924218636,1280,657,1280,800,6-15-2023,9-22-27,3,6,k0,1,toaster,R,kitchen,scaled,k0_toaster_R.png,m,1,1129,6,3,toaster,k0,168533,993928,30,Woman
343647,OSSe5,v1,jsons/s1.json,-0.17117035976231615,1280,657,1280,800,6-15-2023,9-22-27,3,7,k10,1,sponge,L,kitchen,misscaled,k10_sponge_L.png,m,0,1294,7,2,sponge,k10,168533,993928,30,Woman
343647,OSSe5,v1,jsons/s1.json,-0.5495216739073515,1280,657,1280,800,6-15-2023,9-22-27,3,8,k2,0,clipboard,L,classroom,scaled,k2_clipboard_L.png,c,1,1097,8,3,clipboard,k2,168533,993928,30,Woman
343647,OSSe5,v1,jsons/s1.json,0.4491721502318282,1280,657,1280,800,6-15-2023,9-22-27,3,9,k7,0,notebook,R,classroom,scaled,k7_notebook_R.png,m,1,1617,9,2,notebook,k7,168533,993928,30,Woman
343647,OSSe5,v1,jsons/s1.json,-0.10203001809114216,1280,657,1280,800,6-15-2023,9-22-27,3,10,c10,0,sponge,L,kitchen,misscaled,c10_sponge_L.png,c,1,1330,10,3,sponge,c10,168533,993928,30,Woman
343647,OSSe5,v1,jsons/s1.json,-0.17885261994800214,1280,657,1280,800,6-15-2023,9-22-27,3,11,c3,1,eraser,R,classroom,misscaled,c3_eraser_R.png,m,1,1290,11,2,eraser,c3,168533,993928,30,Woman
343647,OSSe5,v1,jsons/s1.json,-0.23839013638706863,1280,657,1280,800,6-15-2023,9-22-27,3,12,k3,0,eraser,L,classroom,misscaled,k3_eraser_L.png,c,1,1259,12,3,eraser,k3,168533,993928,30,Woman
343647,OSSe5,v1,jsons/s1.json,-0.12891792874104316,1280,657,1280,800,6-15-2023,9-22-27,3,13,c6,1,laptop,L,classroom,scaled,c6_laptop_L.png,m,0,1316,13,2,laptop,c6,168533,993928,30,Woman
343647,OSSe5,v1,jsons/s1.json,-0.15004414425167967,1280,657,1280,800,6-15-2023,9-22-27,3,14,c2,1,clipboard,R,classroom,scaled,c2_clipboard_R.png,m,1,1305,14,3,clipboard,c2,168533,993928,30,Woman
343647,OSSe5,v1,jsons/s1.json,0.39347576388560473,1280,657,1280,800,6-15-2023,9-22-27,3,15,c8,0,pot,L,kitchen,scaled,c8_pot_L.png,c,1,1588,15,2,pot,c8,168533,993928,30,Woman
343647,OSSe5,v1,jsons/s1.json,-0.10395058313756367,1280,657,1280,800,6-15-2023,9-22-27,3,16,k4,0,flashdrive,R,classroom,misscaled,k4_flashdrive_R.png,m,1,1329,16,3,flashdrive,k4,168533,993928,30,Woman
343647,OSSe5,v1,jsons/s1.json,-0.5283954583967151,1280,657,1280,800,6-15-2023,9-22-27,3,17,k9,1,saltshaker,R,kitchen,misscaled,k9_saltshaker_R.png,m,1,1108,17,2,saltshaker,k9,168533,993928,30,Woman
343647,OSSe5,v1,jsons/s1.json,-0.22302561601569665,1280,657,1280,800,6-15-2023,9-22-27,3,18,k11,1,spoon,R,kitchen,misscaled,k11_spoon_R.png,m,1,1267,18,3,spoon,k11,168533,993928,30,Woman
343647,OSSe5,v1,jsons/s1.json,-0.04441306669849718,1280,657,1280,800,6-15-2023,9-22-27,3,19,c9,0,saltshaker,R,kitchen,misscaled,c9_saltshaker_R.png,m,1,1360,19,2,saltshaker,c9,168533,993928,30,Woman
343647,OSSe5,v1,jsons/s1.json,4.447788576881391,1280,657,1280,800,6-15-2023,9-22-27,3,20,k8,1,pot,L,kitchen,scaled,k8_pot_L.png,c,1,3699,20,3,pot,k8,168533,993928,30,Woman
343647,OSSe5,v1,jsons/s1.json,-0.920190727866701,1280,657,1280,800,6-15-2023,9-22-27,3,21,k1,0,binderclip,R,classroom,misscaled,k1_binderclip_R.png,m,1,904,21,2,binderclip,k1,168533,993928,30,Woman
343647,OSSe5,v1,jsons/s1.json,-0.24031070143349015,1280,657,1280,800,6-15-2023,9-22-27,3,22,c0,0,toaster,L,kitchen,scaled,c0_toaster_L.png,c,1,1258,22,2,toaster,c0,168533,993928,30,Woman
343647,OSSe5,v1,jsons/s1.json,-0.5034281127932356,1280,657,1280,800,6-15-2023,9-22-27,3,23,c5,0,kettle,L,kitchen,scaled,c5_kettle_L.png,c,1,1121,23,2,kettle,c5,168533,993928,30,Woman
731296,OSSe5,v1,jsons/s22.json,-0.022782949926628493,1366,625,1366,768,6-15-2023,9-14-29,1,0,c1,1,flashdrive,R,classroom,misscaled,c1_flashdrive_R.png,m,1,1626,0,4,flashdrive,c1,343167,566524,37,Man
731296,OSSe5,v1,jsons/s22.json,-0.5403140398987412,1366,625,1366,768,6-15-2023,9-14-29,1,1,k8,1,spoon,R,kitchen,misscaled,k8_spoon_R.png,m,1,1343,1,4,spoon,k8,343167,566524,37,Man
731296,OSSe5,v1,jsons/s22.json,1.0013068394174813,1366,625,1366,768,6-15-2023,9-14-29,1,2,c9,0,toaster,R,kitchen,scaled,c9_toaster_R.png,m,1,2186,2,4,toaster,c9,343167,566524,37,Man
731296,OSSe5,v1,jsons/s22.json,-0.6884413130002999,1366,625,1366,768,6-15-2023,9-14-29,1,3,k9,1,toaster,L,kitchen,scaled,k9_toaster_L.png,c,1,1262,3,4,toaster,k9,343167,566524,37,Man
731296,OSSe5,v1,jsons/s22.json,-0.07947363469389171,1366,625,1366,768,6-15-2023,9-14-29,1,4,k11,0,clipboard,L,classroom,scaled,k11_clipboard_L.png,c,1,1595,4,4,clipboard,k11,343167,566524,37,Man
731296,OSSe5,v1,jsons/s22.json,-0.5384853081320552,1366,625,1366,768,6-15-2023,9-14-29,1,5,c7,0,sponge,R,kitchen,misscaled,c7_sponge_R.png,m,1,1344,5,4,sponge,c7,343167,566524,37,Man
731296,OSSe5,v1,jsons/s22.json,-0.847540976701974,1366,625,1366,768,6-15-2023,9-14-29,1,6,k7,1,sponge,L,kitchen,misscaled,k7_sponge_L.png,c,1,1175,6,4,sponge,k7,343167,566524,37,Man
731296,OSSe5,v1,jsons/s22.json,1.4310588045886703,1366,625,1366,768,6-15-2023,9-14-29,1,7,k5,1,pot,L,kitchen,scaled,k5_pot_L.png,c,1,2421,7,4,pot,k5,343167,566524,37,Man
731296,OSSe5,v1,jsons/s22.json,-0.42510393859752876,1366,625,1366,768,6-15-2023,9-14-29,1,8,c2,0,kettle,L,kitchen,scaled,c2_kettle_L.png,c,1,1406,8,4,kettle,c2,343167,566524,37,Man
731296,OSSe5,v1,jsons/s22.json,-0.5110543316317666,1366,625,1366,768,6-15-2023,9-14-29,1,9,c6,0,saltshaker,L,kitchen,misscaled,c6_saltshaker_L.png,c,1,1359,9,4,saltshaker,c6,343167,566524,37,Man
731296,OSSe5,v1,jsons/s22.json,-0.6811263859335562,1366,625,1366,768,6-15-2023,9-14-29,1,10,k6,1,saltshaker,R,kitchen,misscaled,k6_saltshaker_R.png,m,1,1266,10,4,saltshaker,k6,343167,566524,37,Man
731296,OSSe5,v1,jsons/s22.json,-0.5695737481657157,1366,625,1366,768,6-15-2023,9-14-29,1,11,c0,1,eraser,L,classroom,misscaled,c0_eraser_L.png,c,1,1327,11,4,eraser,c0,343167,566524,37,Man
731296,OSSe5,v1,jsons/s22.json,-0.9408062968029555,1366,625,1366,768,6-15-2023,9-14-29,1,12,k2,1,kettle,R,kitchen,scaled,k2_kettle_R.png,m,1,1124,12,4,kettle,k2,343167,566524,37,Man
731296,OSSe5,v1,jsons/s22.json,-0.6683252635667548,1366,625,1366,768,6-15-2023,9-14-29,1,13,c5,0,pot,L,kitchen,scaled,c5_pot_L.png,c,1,1273,13,4,pot,c5,343167,566524,37,Man
731296,OSSe5,v1,jsons/s22.json,-0.5073968680983948,1366,625,1366,768,6-15-2023,9-14-29,1,14,k3,0,laptop,L,classroom,scaled,k3_laptop_L.png,c,1,1361,14,4,laptop,k3,343167,566524,37,Man
731296,OSSe5,v1,jsons/s22.json,3.294536474841613,1366,625,1366,768,6-15-2023,9-14-29,1,15,k4,0,notebook,R,classroom,scaled,k4_notebook_R.png,m,1,3440,15,4,notebook,k4,343167,566524,37,Man
731296,OSSe5,v1,jsons/s22.json,-0.7414745342341913,1366,625,1366,768,6-15-2023,9-14-29,1,16,k1,0,flashdrive,L,classroom,misscaled,k1_flashdrive_L.png,c,1,1233,16,4,flashdrive,k1,343167,566524,37,Man
731296,OSSe5,v1,jsons/s22.json,1.5444401741231968,1366,625,1366,768,6-15-2023,9-14-29,1,17,c11,1,clipboard,R,classroom,scaled,c11_clipboard_R.png,m,1,2483,17,4,clipboard,c11,343167,566524,37,Man
731296,OSSe5,v1,jsons/s22.json,-0.256860616062425,1366,625,1366,768,6-15-2023,9-14-29,1,18,k10,0,binderclip,L,classroom,misscaled,k10_binderclip_L.png,c,1,1498,18,4,binderclip,k10,343167,566524,37,Man
731296,OSSe5,v1,jsons/s22.json,-0.31355130082968824,1366,625,1366,768,6-15-2023,9-14-29,1,19,c8,0,spoon,R,kitchen,misscaled,c8_spoon_R.png,m,1,1467,19,4,spoon,c8,343167,566524,37,Man
731296,OSSe5,v1,jsons/s22.json,-0.05570012172697488,1366,625,1366,768,6-15-2023,9-14-29,1,20,c10,1,binderclip,R,classroom,misscaled,c10_binderclip_R.png,m,1,1608,20,4,binderclip,c10,343167,566524,37,Man
731296,OSSe5,v1,jsons/s22.json,0.2606704739096876,1366,625,1366,768,6-15-2023,9-14-29,1,21,c3,1,laptop,L,classroom,scaled,c3_laptop_L.png,c,1,1781,21,4,laptop,c3,343167,566524,37,Man
731296,OSSe5,v1,jsons/s22.json,-0.2641755431291687,1366,625,1366,768,6-15-2023,9-14-29,1,22,c4,1,notebook,R,classroom,scaled,c4_notebook_R.png,m,1,1494,22,4,notebook,c4,343167,566524,37,Man
731296,OSSe5,v1,jsons/s22.json,1.1201744042520654,1366,625,1366,768,6-15-2023,9-14-29,1,23,k0,0,eraser,R,classroom,misscaled,k0_eraser_R.png,m,1,2251,23,4,eraser,k0,343167,566524,37,Man
600496,OSSe5,v1,jsons/s22.json,0.13811363802817225,1366,625,1366,768,6-15-2023,8-26-21,1,0,c1,1,flashdrive,L,classroom,misscaled,c1_flashdrive_L.png,c,1,1681,0,3,flashdrive,c1,287486,361732,25,Woman
600496,OSSe5,v1,jsons/s22.json,-0.5892746702153325,1366,625,1366,768,6-15-2023,8-26-21,1,1,k8,1,spoon,R,kitchen,misscaled,k8_spoon_R.png,m,1,853,1,4,spoon,k8,287486,361732,25,Woman
600496,OSSe5,v1,jsons/s22.json,-0.40039968679461574,1366,625,1366,768,6-15-2023,8-26-21,1,2,c9,0,toaster,R,kitchen,scaled,c9_toaster_R.png,m,1,1068,2,3,toaster,c9,287486,361732,25,Woman
600496,OSSe5,v1,jsons/s22.json,-0.7588229111464877,1366,625,1366,768,6-15-2023,8-26-21,1,3,k9,1,toaster,R,kitchen,scaled,k9_toaster_R.png,m,1,660,3,4,toaster,k9,287486,361732,25,Woman
600496,OSSe5,v1,jsons/s22.json,2.7656721283135868,1366,625,1366,768,6-15-2023,8-26-21,1,4,k11,0,clipboard,L,classroom,scaled,k11_clipboard_L.png,c,1,4672,4,4,clipboard,k11,287486,361732,25,Woman
600496,OSSe5,v1,jsons/s22.json,1.7132431509274526,1366,625,1366,768,6-15-2023,8-26-21,1,5,c7,0,sponge,L,kitchen,misscaled,c7_sponge_L.png,c,1,3474,5,2,sponge,c7,287486,361732,25,Woman
600496,OSSe5,v1,jsons/s22.json,-0.0340700677879231,1366,625,1366,768,6-15-2023,8-26-21,1,6,k7,1,sponge,R,kitchen,misscaled,k7_sponge_R.png,m,1,1485,6,3,sponge,k7,287486,361732,25,Woman
600496,OSSe5,v1,jsons/s22.json,-0.46452933232816146,1366,625,1366,768,6-15-2023,8-26-21,1,7,k5,1,pot,R,kitchen,scaled,k5_pot_R.png,m,1,995,7,3,pot,k5,287486,361732,25,Woman
600496,OSSe5,v1,jsons/s22.json,-0.7930839546507107,1366,625,1366,768,6-15-2023,8-26-21,1,8,c2,0,kettle,R,kitchen,scaled,c2_kettle_R.png,m,1,621,8,2,kettle,c2,287486,361732,25,Woman
600496,OSSe5,v1,jsons/s22.json,-0.2695049308425841,1366,625,1366,768,6-15-2023,8-26-21,1,9,c6,0,saltshaker,R,kitchen,misscaled,c6_saltshaker_R.png,m,1,1217,9,4,saltshaker,c6,287486,361732,25,Woman
600496,OSSe5,v1,jsons/s22.json,-0.5813682755605118,1366,625,1366,768,6-15-2023,8-26-21,1,10,k6,1,saltshaker,L,kitchen,misscaled,k6_saltshaker_L.png,c,1,862,10,3,saltshaker,k6,287486,361732,25,Woman
600496,OSSe5,v1,jsons/s22.json,-0.706992101742663,1366,625,1366,768,6-15-2023,8-26-21,1,11,c0,1,eraser,R,classroom,misscaled,c0_eraser_R.png,m,1,719,11,3,eraser,c0,287486,361732,25,Woman
600496,OSSe5,v1,jsons/s22.json,-0.492640957767524,1366,625,1366,768,6-15-2023,8-26-21,1,12,k2,1,kettle,L,kitchen,scaled,k2_kettle_L.png,c,1,963,12,4,kettle,k2,287486,361732,25,Woman
600496,OSSe5,v1,jsons/s22.json,-0.6323205966693564,1366,625,1366,768,6-15-2023,8-26-21,1,13,c5,0,pot,L,kitchen,scaled,c5_pot_L.png,c,1,804,13,3,pot,c5,287486,361732,25,Woman
600496,OSSe5,v1,jsons/s22.json,-0.4021566633845759,1366,625,1366,768,6-15-2023,8-26-21,1,14,k3,0,laptop,R,classroom,scaled,k3_laptop_R.png,m,1,1066,14,4,laptop,k3,287486,361732,25,Woman
600496,OSSe5,v1,jsons/s22.json,0.6924397521606016,1366,625,1366,768,6-15-2023,8-26-21,1,15,k4,0,notebook,L,classroom,scaled,k4_notebook_L.png,c,1,2312,15,2,notebook,k4,287486,361732,25,Woman
600496,OSSe5,v1,jsons/s22.json,-0.7491595399017068,1366,625,1366,768,6-15-2023,8-26-21,1,16,k1,0,flashdrive,R,classroom,misscaled,k1_flashdrive_R.png,m,1,671,16,3,flashdrive,k1,287486,361732,25,Woman
600496,OSSe5,v1,jsons/s22.json,0.4816025613653829,1366,625,1366,768,6-15-2023,8-26-21,1,17,c11,1,clipboard,R,classroom,scaled,c11_clipboard_R.png,m,1,2072,17,4,clipboard,c11,287486,361732,25,Woman
600496,OSSe5,v1,jsons/s22.json,0.26285897591534335,1366,625,1366,768,6-15-2023,8-26-21,1,18,k10,0,binderclip,R,classroom,misscaled,k10_binderclip_R.png,m,1,1823,18,3,binderclip,k10,287486,361732,25,Woman
600496,OSSe5,v1,jsons/s22.json,-0.36789561988035285,1366,625,1366,768,6-15-2023,8-26-21,1,19,c8,0,spoon,L,kitchen,misscaled,c8_spoon_L.png,c,1,1105,19,2,spoon,c8,287486,361732,25,Woman
600496,OSSe5,v1,jsons/s22.json,2.3633244892127108,1366,625,1366,768,6-15-2023,8-26-21,1,20,c10,1,binderclip,L,classroom,misscaled,c10_binderclip_L.png,c,1,4214,20,3,binderclip,c10,287486,361732,25,Woman
600496,OSSe5,v1,jsons/s22.json,-0.5857607170354122,1366,625,1366,768,6-15-2023,8-26-21,1,21,c3,1,laptop,L,classroom,scaled,c3_laptop_L.png,c,1,857,21,4,laptop,c3,287486,361732,25,Woman
600496,OSSe5,v1,jsons/s22.json,-0.5892746702153325,1366,625,1366,768,6-15-2023,8-26-21,1,22,c4,1,notebook,L,classroom,scaled,c4_notebook_L.png,c,1,853,22,3,notebook,c4,287486,361732,25,Woman
265592,OSSe5,v1,jsons/s1.json,-0.06674672955083356,1161,1038,2240,1260,6-15-2023,6-14-49,1,0,c1,1,binderclip,L,classroom,misscaled,c1_binderclip_L.png,c,1,795,0,2,binderclip,c1,212832,301779,45,Man
265592,OSSe5,v1,jsons/s1.json,0.04078966805884273,1161,1038,2240,1260,6-15-2023,6-14-49,1,1,c4,1,flashdrive,L,classroom,misscaled,c4_flashdrive_L.png,c,1,853,1,1,flashdrive,c4,212832,301779,45,Man
265592,OSSe5,v1,jsons/s1.json,2.452942310993133,1161,1038,2240,1260,6-15-2023,6-14-49,1,2,c11,0,spoon,R,kitchen,misscaled,c11_spoon_R.png,m,1,2154,2,3,spoon,c11,212832,301779,45,Man
265592,OSSe5,v1,jsons/s1.json,-0.43199966625956165,1161,1038,2240,1260,6-15-2023,6-14-49,1,3,c7,1,notebook,R,classroom,scaled,c7_notebook_R.png,m,1,598,3,4,notebook,c7,212832,301779,45,Man
265592,OSSe5,v1,jsons/s1.json,-0.4264374387969922,1161,1038,2240,1260,6-15-2023,6-14-49,1,4,k5,1,kettle,R,kitchen,scaled,k5_kettle_R.png,m,1,601,4,4,kettle,k5,212832,301779,45,Man
265592,OSSe5,v1,jsons/s1.json,-0.45424857610983954,1161,1038,2240,1260,6-15-2023,6-14-49,1,5,k6,0,laptop,R,classroom,scaled,k6_laptop_R.png,m,1,586,5,4,laptop,k6,212832,301779,45,Man
265592,OSSe5,v1,jsons/s1.json,-0.5339738364066685,1161,1038,2240,1260,6-15-2023,6-14-49,1,6,k0,1,toaster,R,kitchen,scaled,k0_toaster_R.png,m,1,543,6,4,toaster,k0,212832,301779,45,Man
265592,OSSe5,v1,jsons/s1.json,-0.49503824416868225,1161,1038,2240,1260,6-15-2023,6-14-49,1,7,k10,1,sponge,L,kitchen,misscaled,k10_sponge_L.png,c,1,564,7,2,sponge,k10,212832,301779,45,Man
265592,OSSe5,v1,jsons/s1.json,-0.28367360059104263,1161,1038,2240,1260,6-15-2023,6-14-49,1,8,k2,0,clipboard,L,classroom,scaled,k2_clipboard_L.png,c,1,678,8,4,clipboard,k2,212832,301779,45,Man
265592,OSSe5,v1,jsons/s1.json,-0.5006004716312518,1161,1038,2240,1260,6-15-2023,6-14-49,1,9,k7,0,notebook,R,classroom,scaled,k7_notebook_R.png,m,1,561,9,3,notebook,k7,212832,301779,45,Man
265592,OSSe5,v1,jsons/s1.json,3.671070125295846,1161,1038,2240,1260,6-15-2023,6-14-49,1,10,c10,0,sponge,R,kitchen,misscaled,c10_sponge_R.png,m,1,2811,10,1,sponge,c10,212832,301779,45,Man
265592,OSSe5,v1,jsons/s1.json,-0.35969070924615865,1161,1038,2240,1260,6-15-2023,6-14-49,1,11,c3,1,eraser,L,classroom,misscaled,c3_eraser_L.png,c,1,637,11,1,eraser,c3,212832,301779,45,Man
265592,OSSe5,v1,jsons/s1.json,-0.4913300925269693,1161,1038,2240,1260,6-15-2023,6-14-49,1,12,k3,0,eraser,L,classroom,misscaled,k3_eraser_L.png,c,1,566,12,1,eraser,k3,212832,301779,45,Man
265592,OSSe5,v1,jsons/s1.json,-0.08899563940111141,1161,1038,2240,1260,6-15-2023,6-14-49,1,13,c6,1,laptop,L,classroom,scaled,c6_laptop_L.png,c,1,783,13,3,laptop,c6,212832,301779,45,Man
265592,OSSe5,v1,jsons/s1.json,-0.6285317032703494,1161,1038,2240,1260,6-15-2023,6-14-49,1,14,c2,1,clipboard,R,classroom,scaled,c2_clipboard_R.png,m,1,492,14,3,clipboard,c2,212832,301779,45,Man
265592,OSSe5,v1,jsons/s1.json,-0.07972526029682897,1161,1038,2240,1260,6-15-2023,6-14-49,1,15,c8,0,pot,R,kitchen,scaled,c8_pot_R.png,m,1,788,15,3,pot,c8,212832,301779,45,Man
265592,OSSe5,v1,jsons/s1.json,0.12978530745995415,1161,1038,2240,1260,6-15-2023,6-14-49,1,16,k4,0,flashdrive,R,classroom,misscaled,k4_flashdrive_R.png,m,1,901,16,1,flashdrive,k4,212832,301779,45,Man
265592,OSSe5,v1,jsons/s1.json,0.3522744059627327,1161,1038,2240,1260,6-15-2023,6-14-49,1,17,k9,1,saltshaker,L,kitchen,misscaled,k9_saltshaker_L.png,c,1,1021,17,1,saltshaker,k9,212832,301779,45,Man
265592,OSSe5,v1,jsons/s1.json,-0.535827912227525,1161,1038,2240,1260,6-15-2023,6-14-49,1,18,k11,1,spoon,R,kitchen,misscaled,k11_spoon_R.png,m,1,542,18,2,spoon,k11,212832,301779,45,Man
265592,OSSe5,v1,jsons/s1.json,0.35783663342530214,1161,1038,2240,1260,6-15-2023,6-14-49,1,19,c9,0,saltshaker,L,kitchen,misscaled,c9_saltshaker_L.png,c,1,1024,19,2,saltshaker,c9,212832,301779,45,Man
265592,OSSe5,v1,jsons/s1.json,-0.2744032214867602,1161,1038,2240,1260,6-15-2023,6-14-49,1,20,k8,1,pot,L,kitchen,scaled,k8_pot_L.png,c,1,683,20,3,pot,k8,212832,301779,45,Man
265592,OSSe5,v1,jsons/s1.json,-0.40418852894671436,1161,1038,2240,1260,6-15-2023,6-14-49,1,21,k1,0,binderclip,L,classroom,misscaled,k1_binderclip_L.png,c,1,613,21,1,binderclip,k1,212832,301779,45,Man
265592,OSSe5,v1,jsons/s1.json,-0.6136990967034974,1161,1038,2240,1260,6-15-2023,6-14-49,1,22,c0,0,toaster,R,kitchen,scaled,c0_toaster_R.png,m,1,500,22,2,toaster,c0,212832,301779,45,Man
265592,OSSe5,v1,jsons/s1.json,-0.3355877235750243,1161,1038,2240,1260,6-15-2023,6-14-49,1,23,c5,0,kettle,L,kitchen,scaled,c5_kettle_L.png,c,1,650,23,1,kettle,c5,212832,301779,45,Man
117013,OSSe5,v1,jsons/s23.json,-0.4184134799690767,1366,625,1366,768,6-15-2023,9-34-36,1,0,c4,1,laptop,R,classroom,scaled,c4_laptop_R.png,m,1,1027,0,3,laptop,c4,635968,688569,30,Man
117013,OSSe5,v1,jsons/s23.json,-0.6059258299479667,1366,625,1366,768,6-15-2023,9-34-36,1,1,c9,0,spoon,R,kitchen,misscaled,c9_spoon_R.png,m,1,924,1,3,spoon,c9,635968,688569,30,Man
117013,OSSe5,v1,jsons/s23.json,-0.9154122328257466,1366,625,1366,768,6-15-2023,9-34-36,1,2,c7,0,saltshaker,L,kitchen,misscaled,c7_saltshaker_L.png,c,1,754,2,2,saltshaker,c7,635968,688569,30,Man
117013,OSSe5,v1,jsons/s23.json,-0.7570280148824122,1366,625,1366,768,6-15-2023,9-34-36,1,3,c3,0,kettle,L,kitchen,scaled,c3_kettle_L.png,c,1,841,3,3,kettle,c3,635968,688569,30,Man
117013,OSSe5,v1,jsons/s23.json,-0.662361585766856,1366,625,1366,768,6-15-2023,9-34-36,1,4,k6,1,pot,L,kitchen,scaled,k6_pot_L.png,c,1,893,4,4,pot,k6,635968,688569,30,Man
117013,OSSe5,v1,jsons/s23.json,-0.42387500472574335,1366,625,1366,768,6-15-2023,9-34-36,1,5,k2,0,flashdrive,R,classroom,misscaled,k2_flashdrive_R.png,m,1,1024,5,3,flashdrive,k2,635968,688569,30,Man
117013,OSSe5,v1,jsons/s23.json,-0.9609249391313024,1366,625,1366,768,6-15-2023,9-34-36,1,6,c5,1,notebook,L,classroom,scaled,c5_notebook_L.png,c,1,729,6,2,notebook,c5,635968,688569,30,Man
117013,OSSe5,v1,jsons/s23.json,-0.8134637707013015,1366,625,1366,768,6-15-2023,9-34-36,1,7,k8,1,sponge,R,kitchen,misscaled,k8_sponge_R.png,m,1,810,7,3,sponge,k8,635968,688569,30,Man
117013,OSSe5,v1,jsons/s23.json,0.6174557155453745,1366,625,1366,768,6-15-2023,9-34-36,1,8,k5,0,notebook,L,classroom,scaled,k5_notebook_L.png,c,1,1596,8,2,notebook,k5,635968,688569,30,Man
117013,OSSe5,v1,jsons/s23.json,-0.46574669452685474,1366,625,1366,768,6-15-2023,9-34-36,1,9,c11,1,binderclip,L,classroom,misscaled,c11_binderclip_L.png,c,1,1001,9,2,binderclip,c11,635968,688569,30,Man
117013,OSSe5,v1,jsons/s23.json,-0.6204898959657447,1366,625,1366,768,6-15-2023,9-34-36,1,10,c1,1,eraser,R,classroom,misscaled,c1_eraser_R.png,m,1,916,10,1,eraser,c1,635968,688569,30,Man
117013,OSSe5,v1,jsons/s23.json,3.0150650837220567,1366,625,1366,768,6-15-2023,9-34-36,1,11,k0,0,clipboard,R,classroom,scaled,k0_clipboard_R.png,m,1,2913,11,2,clipboard,k0,635968,688569,30,Man
117013,OSSe5,v1,jsons/s23.json,-0.025183697489074102,1366,625,1366,768,6-15-2023,9-34-36,1,12,c2,1,flashdrive,L,classroom,misscaled,c2_flashdrive_L.png,c,1,1243,12,3,flashdrive,c2,635968,688569,30,Man
117013,OSSe5,v1,jsons/s23.json,-0.1271321596135192,1366,625,1366,768,6-15-2023,9-34-36,1,13,k11,0,binderclip,R,classroom,misscaled,k11_binderclip_R.png,m,1,1187,13,2,binderclip,k11,635968,688569,30,Man
117013,OSSe5,v1,jsons/s23.json,-0.5804387144168555,1366,625,1366,768,6-15-2023,9-34-36,1,14,c10,0,toaster,R,kitchen,scaled,c10_toaster_R.png,m,1,938,14,2,toaster,c10,635968,688569,30,Man
117013,OSSe5,v1,jsons/s23.json,-0.30008044357463143,1366,625,1366,768,6-15-2023,9-34-36,1,15,c6,0,pot,R,kitchen,scaled,c6_pot_R.png,m,1,1092,15,3,pot,c6,635968,688569,30,Man
117013,OSSe5,v1,jsons/s23.json,-0.6714641270279672,1366,625,1366,768,6-15-2023,9-34-36,1,16,c8,0,sponge,R,kitchen,misscaled,c8_sponge_R.png,m,1,888,16,2,sponge,c8,635968,688569,30,Man
117013,OSSe5,v1,jsons/s23.json,0.247892540344261,1366,625,1366,768,6-15-2023,9-34-36,1,17,k4,0,laptop,L,classroom,scaled,k4_laptop_L.png,c,1,1393,17,3,laptop,k4,635968,688569,30,Man
117013,OSSe5,v1,jsons/s23.json,2.128477564889829,1366,625,1366,768,6-15-2023,9-34-36,1,18,k10,1,toaster,L,kitchen,scaled,k10_toaster_L.png,c,1,2426,18,2,toaster,k10,635968,688569,30,Man
117013,OSSe5,v1,jsons/s23.json,-0.3037214600790759,1366,625,1366,768,6-15-2023,9-34-36,1,19,k1,0,eraser,L,classroom,misscaled,k1_eraser_L.png,c,1,1090,19,3,eraser,k1,635968,688569,30,Man
117013,OSSe5,v1,jsons/s23.json,1.2000183562564894,1366,625,1366,768,6-15-2023,9-34-36,1,20,c0,1,clipboard,L,classroom,scaled,c0_clipboard_L.png,c,1,1916,20,1,clipboard,c0,635968,688569,30,Man
117013,OSSe5,v1,jsons/s23.json,1.0034034650164882,1366,625,1366,768,6-15-2023,9-34-36,1,21,k7,1,saltshaker,R,kitchen,misscaled,k7_saltshaker_R.png,m,1,1808,21,2,saltshaker,k7,635968,688569,30,Man
117013,OSSe5,v1,jsons/s23.json,0.7885834912542645,1366,625,1366,768,6-15-2023,9-34-36,1,22,k3,1,kettle,R,kitchen,scaled,k3_kettle_R.png,m,1,1690,22,3,kettle,k3,635968,688569,30,Man
117013,OSSe5,v1,jsons/s23.json,-0.3492341663846318,1366,625,1366,768,6-15-2023,9-34-36,1,23,k9,1,spoon,L,kitchen,misscaled,k9_spoon_L.png,c,1,1065,23,4,spoon,k9,635968,688569,30,Man
155342,OSSe5,v1,jsons/s22.json,-0.7146098180641688,1366,625,1366,768,6-15-2023,10-13-35,1,0,c1,1,flashdrive,L,classroom,misscaled,c1_flashdrive_L.png,c,1,1060,0,2,flashdrive,c1,218714,293970,25,Man
155342,OSSe5,v1,jsons/s22.json,-0.8914872073171287,1366,625,1366,768,6-15-2023,10-13-35,1,1,k8,1,spoon,L,kitchen,misscaled,k8_spoon_L.png,c,1,978,1,3,spoon,k8,218714,293970,25,Man
155342,OSSe5,v1,jsons/s22.json,-0.43203740352590364,1366,625,1366,768,6-15-2023,10-13-35,1,2,c9,0,toaster,R,kitchen,scaled,c9_toaster_R.png,m,1,1191,2,4,toaster,c9,218714,293970,25,Man
155342,OSSe5,v1,jsons/s22.json,-0.6606837847553396,1366,625,1366,768,6-15-2023,10-13-35,1,3,k9,1,toaster,R,kitchen,scaled,k9_toaster_R.png,m,1,1085,3,4,toaster,k9,218714,293970,25,Man
155342,OSSe5,v1,jsons/s22.json,0.2064468308506344,1366,625,1366,768,6-15-2023,10-13-35,1,4,k11,0,clipboard,R,classroom,scaled,k11_clipboard_R.png,m,1,1487,4,4,clipboard,k11,218714,293970,25,Man
155342,OSSe5,v1,jsons/s22.json,-0.7620647273759386,1366,625,1366,768,6-15-2023,10-13-35,1,5,c7,0,sponge,R,kitchen,misscaled,c7_sponge_R.png,m,1,1038,5,3,sponge,c7,218714,293970,25,Man
155342,OSSe5,v1,jsons/s22.json,-0.8030485126906488,1366,625,1366,768,6-15-2023,10-13-35,1,6,k7,1,sponge,R,kitchen,misscaled,k7_sponge_R.png,m,1,1019,6,1,sponge,k7,218714,293970,25,Man
155342,OSSe5,v1,jsons/s22.json,0.09643772290062277,1366,625,1366,768,6-15-2023,10-13-35,1,7,k5,1,pot,L,kitchen,scaled,k5_pot_L.png,c,1,1436,7,4,pot,k5,218714,293970,25,Man
155342,OSSe5,v1,jsons/s22.json,-0.5485176354729748,1366,625,1366,768,6-15-2023,10-13-35,1,8,c2,0,kettle,R,kitchen,scaled,c2_kettle_R.png,m,1,1137,8,3,kettle,c2,218714,293970,25,Man
155342,OSSe5,v1,jsons/s22.json,-0.13867978232587266,1366,625,1366,768,6-15-2023,10-13-35,1,9,c6,0,saltshaker,L,kitchen,misscaled,c6_saltshaker_L.png,c,1,1327,9,3,saltshaker,c6,218714,293970,25,Man
155342,OSSe5,v1,jsons/s22.json,-0.602443668781804,1366,625,1366,768,6-15-2023,10-13-35,1,10,k6,1,saltshaker,R,kitchen,misscaled,k6_saltshaker_R.png,m,1,1112,10,4,saltshaker,k6,218714,293970,25,Man
155342,OSSe5,v1,jsons/s22.json,-0.5744021314612128,1366,625,1366,768,6-15-2023,10-13-35,1,11,c0,1,eraser,R,classroom,misscaled,c0_eraser_R.png,m,1,1125,11,1,eraser,c0,218714,293970,25,Man
155342,OSSe5,v1,jsons/s22.json,0.2129179548476939,1366,625,1366,768,6-15-2023,10-13-35,1,12,k2,1,kettle,R,kitchen,scaled,k2_kettle_R.png,m,1,1490,12,4,kettle,k2,218714,293970,25,Man
155342,OSSe5,v1,jsons/s22.json,-0.17319244364352337,1366,625,1366,768,6-15-2023,10-13-35,1,13,c5,0,pot,L,kitchen,scaled,c5_pot_L.png,c,1,1311,13,4,pot,c5,218714,293970,25,Man
155342,OSSe5,v1,jsons/s22.json,-0.9734547779465491,1366,625,1366,768,6-15-2023,10-13-35,1,14,k3,0,laptop,R,classroom,scaled,k3_laptop_R.png,m,1,940,14,3,laptop,k3,218714,293970,25,Man
155342,OSSe5,v1,jsons/s22.json,1.476944175606651,1366,625,1366,768,6-15-2023,10-13-35,1,15,k4,0,notebook,L,classroom,scaled,k4_notebook_L.png,c,1,2076,15,2,notebook,k4,218714,293970,25,Man
155342,OSSe5,v1,jsons/s22.json,2.016204508694943,1366,625,1366,768,6-15-2023,10-13-35,1,16,k1,0,flashdrive,L,classroom,misscaled,k1_flashdrive_L.png,c,1,2326,16,1,flashdrive,k1,218714,293970,25,Man
155342,OSSe5,v1,jsons/s22.json,-0.40615290753766564,1366,625,1366,768,6-15-2023,10-13-35,1,17,c11,1,clipboard,L,classroom,scaled,c11_clipboard_L.png,c,1,1203,17,4,clipboard,c11,218714,293970,25,Man
155342,OSSe5,v1,jsons/s22.json,0.6917811306300975,1366,625,1366,768,6-15-2023,10-13-35,1,18,k10,0,binderclip,R,classroom,misscaled,k10_binderclip_R.png,c,0,1712,18,1,binderclip,k10,218714,293970,25,Man
155342,OSSe5,v1,jsons/s22.json,-0.5938155034523913,1366,625,1366,768,6-15-2023,10-13-35,1,19,c8,0,spoon,R,kitchen,misscaled,c8_spoon_R.png,m,1,1116,19,1,spoon,c8,218714,293970,25,Man
155342,OSSe5,v1,jsons/s22.json,0.6033424360036175,1366,625,1366,768,6-15-2023,10-13-35,1,20,c10,1,binderclip,L,classroom,misscaled,c10_binderclip_L.png,c,1,1671,20,1,binderclip,c10,218714,293970,25,Man
155342,OSSe5,v1,jsons/s22.json,0.4394072947447767,1366,625,1366,768,6-15-2023,10-13-35,1,21,c3,1,laptop,L,classroom,scaled,c3_laptop_L.png,c,1,1595,21,4,laptop,c3,218714,293970,25,Man
155342,OSSe5,v1,jsons/s22.json,3.1033533402009406,1366,625,1366,768,6-15-2023,10-13-35,1,22,c4,1,notebook,L,classroom,scaled,c4_notebook_L.png,c,1,2830,22,2,notebook,c4,218714,293970,25,Man
155342,OSSe5,v1,jsons/s22.json,-0.5722450901288597,1366,625,1366,768,6-15-2023,10-13-35,1,23,k0,0,eraser,L,classroom,misscaled,k0_eraser_L.png,c,1,1126,23,1,eraser,k0,218714,293970,25,Man
621679,OSSe5,v1,jsons/s16.json,-0.5166208155329145,1366,625,1366,768,6-15-2023,9-24-24,1,0,c6,1,eraser,R,classroom,misscaled,c6_eraser_R.png,m,1,1362,0,4,eraser,c6,287108,372488,30,Man
621679,OSSe5,v1,jsons/s16.json,-1.1806056013981685,1366,625,1366,768,6-15-2023,9-24-24,1,1,k9,0,laptop,L,classroom,scaled,k9_laptop_L.png,c,1,970,1,4,laptop,k9,287108,372488,30,Man
621679,OSSe5,v1,jsons/s16.json,-0.3353800704115314,1366,625,1366,768,6-15-2023,9-24-24,1,2,k4,0,binderclip,R,classroom,misscaled,k4_binderclip_R.png,m,1,1469,2,4,binderclip,k4,287108,372488,30,Man
621679,OSSe5,v1,jsons/s16.json,-0.3878890713345489,1366,625,1366,768,6-15-2023,9-24-24,1,3,k1,1,sponge,L,kitchen,misscaled,k1_sponge_L.png,c,1,1438,3,4,sponge,k1,287108,372488,30,Man
621679,OSSe5,v1,jsons/s16.json,-0.2388312622627572,1366,625,1366,768,6-15-2023,9-24-24,1,4,c11,0,pot,R,kitchen,scaled,c11_pot_R.png,m,1,1526,4,4,pot,c11,287108,372488,30,Man
621679,OSSe5,v1,jsons/s16.json,1.089138309467751,1366,625,1366,768,6-15-2023,9-24-24,1,5,c2,0,spoon,L,kitchen,misscaled,c2_spoon_L.png,c,1,2310,5,4,spoon,c2,287108,372488,30,Man
621679,OSSe5,v1,jsons/s16.json,-0.6572094309074453,1366,625,1366,768,6-15-2023,9-24-24,1,6,c10,1,notebook,R,classroom,scaled,c10_notebook_R.png,m,1,1279,6,4,notebook,c10,287108,372488,30,Man
621679,OSSe5,v1,jsons/s16.json,-0.028795258570687036,1366,625,1366,768,6-15-2023,9-24-24,1,7,k11,1,pot,R,kitchen,scaled,k11_pot_R.png,m,1,1650,7,4,pot,k11,287108,372488,30,Man
621679,OSSe5,v1,jsons/s16.json,3.1742537977333827,1366,625,1366,768,6-15-2023,9-24-24,1,8,c4,1,binderclip,R,classroom,misscaled,c4_binderclip_R.png,m,1,3541,8,4,binderclip,c4,287108,372488,30,Man
621679,OSSe5,v1,jsons/s16.json,-0.7317383354433412,1366,625,1366,768,6-15-2023,9-24-24,1,9,k10,0,notebook,L,classroom,scaled,k10_notebook_L.png,c,1,1235,9,4,notebook,k10,287108,372488,30,Man
621679,OSSe5,v1,jsons/s16.json,-0.3624814902427662,1366,625,1366,768,6-15-2023,9-24-24,1,10,c7,1,flashdrive,L,classroom,misscaled,c7_flashdrive_L.png,c,1,1453,10,4,flashdrive,c7,287108,372488,30,Man
621679,OSSe5,v1,jsons/s16.json,-0.31336016679865303,1366,625,1366,768,6-15-2023,9-24-24,1,11,c1,0,sponge,R,kitchen,misscaled,c1_sponge_R.png,m,1,1482,11,4,sponge,c1,287108,372488,30,Man
621679,OSSe5,v1,jsons/s16.json,-0.8435316922471849,1366,625,1366,768,6-15-2023,9-24-24,1,12,c0,0,saltshaker,L,kitchen,misscaled,c0_saltshaker_L.png,c,1,1169,12,4,saltshaker,c0,287108,372488,30,Man
621679,OSSe5,v1,jsons/s16.json,-0.2608511658756355,1366,625,1366,768,6-15-2023,9-24-24,1,13,k8,1,kettle,L,kitchen,scaled,k8_kettle_L.png,c,1,1513,13,4,kettle,k8,287108,372488,30,Man
621679,OSSe5,v1,jsons/s16.json,-0.7893288525847153,1366,625,1366,768,6-15-2023,9-24-24,1,14,k7,0,flashdrive,L,classroom,misscaled,k7_flashdrive_L.png,c,1,1201,14,4,flashdrive,k7,287108,372488,30,Man
621679,OSSe5,v1,jsons/s16.json,-0.255769649657279,1366,625,1366,768,6-15-2023,9-24-24,1,15,k3,1,toaster,L,kitchen,scaled,k3_toaster_L.png,c,1,1516,15,4,toaster,k3,287108,372488,30,Man
621679,OSSe5,v1,jsons/s16.json,-0.3590938127638619,1366,625,1366,768,6-15-2023,9-24-24,1,16,c5,1,clipboard,R,classroom,scaled,c5_clipboard_R.png,m,1,1455,16,4,clipboard,c5,287108,372488,30,Man
621679,OSSe5,v1,jsons/s16.json,1.8276519998689007,1366,625,1366,768,6-15-2023,9-24-24,1,17,k6,0,eraser,L,classroom,misscaled,k6_eraser_L.png,c,1,2746,17,4,eraser,k6,287108,372488,30,Man
621679,OSSe5,v1,jsons/s16.json,-0.5826805263715494,1366,625,1366,768,6-15-2023,9-24-24,1,18,k0,1,saltshaker,L,kitchen,misscaled,k0_saltshaker_L.png,c,1,1323,18,4,saltshaker,k0,287108,372488,30,Man
621679,OSSe5,v1,jsons/s16.json,0.6182511399000452,1366,625,1366,768,6-15-2023,9-24-24,1,19,c9,1,laptop,R,classroom,scaled,c9_laptop_R.png,m,1,2032,19,4,laptop,c9,287108,372488,30,Man
621679,OSSe5,v1,jsons/s16.json,-0.07114122705699151,1366,625,1366,768,6-15-2023,9-24-24,1,20,c8,0,kettle,R,kitchen,scaled,c8_kettle_R.png,m,1,1625,20,4,kettle,c8,287108,372488,30,Man
621679,OSSe5,v1,jsons/s16.json,1.0501800184603507,1366,625,1366,768,6-15-2023,9-24-24,1,21,k5,0,clipboard,R,classroom,scaled,k5_clipboard_R.png,m,1,2287,21,4,clipboard,k5,287108,372488,30,Man
621679,OSSe5,v1,jsons/s16.json,1.0213847598896637,1366,625,1366,768,6-15-2023,9-24-24,1,22,k2,1,spoon,R,kitchen,misscaled,k2_spoon_R.png,m,1,2270,22,4,spoon,k2,287108,372488,30,Man
621679,OSSe5,v1,jsons/s16.json,-0.8655515958600634,1366,625,1366,768,6-15-2023,9-24-24,1,23,c3,0,toaster,L,kitchen,scaled,c3_toaster_L.png,c,1,1156,23,4,toaster,c3,287108,372488,30,Man
103141,OSSe5,v1,jsons/s8.json,0.9386451604976696,1137,722,1680,1050,6-15-2023,8-7-59,1,0,k6,1,spoon,L,kitchen,misscaled,k6_spoon_L.png,c,1,938,0,3,spoon,k6,214977,467836,33,Woman
103141,OSSe5,v1,jsons/s8.json,1.1330990565006396,1137,722,1680,1050,6-15-2023,8-7-59,1,1,c7,0,toaster,L,kitchen,scaled,c7_toaster_L.png,c,1,978,1,3,toaster,c7,214977,467836,33,Woman
103141,OSSe5,v1,jsons/s8.json,-0.6753221763269808,1137,722,1680,1050,6-15-2023,8-7-59,1,2,k5,1,sponge,R,kitchen,misscaled,k5_sponge_R.png,m,1,606,2,1,sponge,k5,214977,467836,33,Woman
103141,OSSe5,v1,jsons/s8.json,-0.03848566691725428,1137,722,1680,1050,6-15-2023,8-7-59,1,3,k3,1,pot,R,kitchen,scaled,k3_pot_R.png,m,1,737,3,4,pot,k3,214977,467836,33,Woman
103141,OSSe5,v1,jsons/s8.json,-0.4128094167229714,1137,722,1680,1050,6-15-2023,8-7-59,1,4,c0,0,kettle,R,kitchen,scaled,c0_kettle_R.png,m,1,660,4,3,kettle,c0,214977,467836,33,Woman
103141,OSSe5,v1,jsons/s8.json,0.7587753066949224,1137,722,1680,1050,6-15-2023,8-7-59,1,5,c10,1,eraser,L,classroom,misscaled,c10_eraser_L.png,c,1,901,5,1,eraser,c10,214977,467836,33,Woman
103141,OSSe5,v1,jsons/s8.json,-0.6169860075260898,1137,722,1680,1050,6-15-2023,8-7-59,1,6,c11,1,flashdrive,R,classroom,misscaled,c11_flashdrive_R.png,m,1,618,6,1,flashdrive,c11,214977,467836,33,Woman
103141,OSSe5,v1,jsons/s8.json,0.476817157490616,1137,722,1680,1050,6-15-2023,8-7-59,1,7,k4,1,saltshaker,R,kitchen,misscaled,k4_saltshaker_R.png,m,1,843,7,1,saltshaker,k4,214977,467836,33,Woman
103141,OSSe5,v1,jsons/s8.json,1.6824313127090296,1137,722,1680,1050,6-15-2023,8-7-59,1,8,k2,0,notebook,L,classroom,scaled,k2_notebook_L.png,c,1,1091,8,2,notebook,k2,214977,467836,33,Woman
103141,OSSe5,v1,jsons/s8.json,-0.25724629992059544,1137,722,1680,1050,6-15-2023,8-7-59,1,9,c9,1,clipboard,L,classroom,scaled,c9_clipboard_L.png,c,1,692,9,4,clipboard,c9,214977,467836,33,Woman
103141,OSSe5,v1,jsons/s8.json,3.3450121235344223,1137,722,1680,1050,6-15-2023,8-7-59,1,10,c6,0,spoon,R,kitchen,misscaled,c6_spoon_R.png,m,1,1433,10,2,spoon,c6,214977,467836,33,Woman
103141,OSSe5,v1,jsons/s8.json,-1.0253391891323267,1137,722,1680,1050,6-15-2023,8-7-59,1,11,k1,0,laptop,L,classroom,scaled,k1_laptop_L.png,c,1,534,11,4,laptop,k1,214977,467836,33,Woman
103141,OSSe5,v1,jsons/s8.json,-0.6947675659272777,1137,722,1680,1050,6-15-2023,8-7-59,1,12,k7,1,toaster,R,kitchen,scaled,k7_toaster_R.png,m,1,602,12,1,toaster,k7,214977,467836,33,Woman
103141,OSSe5,v1,jsons/s8.json,-0.019040277316957288,1137,722,1680,1050,6-15-2023,8-7-59,1,13,c2,1,notebook,L,classroom,scaled,c2_notebook_L.png,c,1,741,13,3,notebook,c2,214977,467836,33,Woman
103141,OSSe5,v1,jsons/s8.json,-0.42253211152311987,1137,722,1680,1050,6-15-2023,8-7-59,1,14,k0,1,kettle,R,kitchen,scaled,k0_kettle_R.png,m,1,658,14,3,kettle,k0,214977,467836,33,Woman
103141,OSSe5,v1,jsons/s8.json,0.38931290428927956,1137,722,1680,1050,6-15-2023,8-7-59,1,15,c3,0,pot,L,kitchen,scaled,c3_pot_L.png,c,1,825,15,4,pot,c3,214977,467836,33,Woman
103141,OSSe5,v1,jsons/s8.json,-0.3447505531219319,1137,722,1680,1050,6-15-2023,8-7-59,1,16,c5,0,sponge,L,kitchen,misscaled,c5_sponge_L.png,c,1,674,16,1,sponge,c5,214977,467836,33,Woman
103141,OSSe5,v1,jsons/s8.json,-0.7725491243284657,1137,722,1680,1050,6-15-2023,8-7-59,1,17,k11,0,flashdrive,R,classroom,misscaled,k11_flashdrive_R.png,m,1,586,17,1,flashdrive,k11,214977,467836,33,Woman
103141,OSSe5,v1,jsons/s8.json,-0.20863282591985297,1137,722,1680,1050,6-15-2023,8-7-59,1,18,c1,1,laptop,R,classroom,scaled,c1_laptop_R.png,m,1,702,18,4,laptop,c1,214977,467836,33,Woman
103141,OSSe5,v1,jsons/s8.json,-0.5003136699243078,1137,722,1680,1050,6-15-2023,8-7-59,1,19,c4,0,saltshaker,L,kitchen,misscaled,c4_saltshaker_L.png,c,1,642,19,1,saltshaker,c4,214977,467836,33,Woman
103141,OSSe5,v1,jsons/s8.json,-0.9670030203314356,1137,722,1680,1050,6-15-2023,8-7-59,1,20,k10,0,eraser,R,classroom,misscaled,k10_eraser_R.png,m,1,546,20,1,eraser,k10,214977,467836,33,Woman
103141,OSSe5,v1,jsons/s8.json,-0.3641959427222289,1137,722,1680,1050,6-15-2023,8-7-59,1,21,c8,1,binderclip,L,classroom,misscaled,c8_binderclip_L.png,c,1,670,21,1,binderclip,c8,214977,467836,33,Woman
103141,OSSe5,v1,jsons/s8.json,-0.7725491243284657,1137,722,1680,1050,6-15-2023,8-7-59,1,22,k8,0,binderclip,L,classroom,misscaled,k8_binderclip_L.png,c,1,586,22,1,binderclip,k8,214977,467836,33,Woman
103141,OSSe5,v1,jsons/s8.json,-0.6315700497263125,1137,722,1680,1050,6-15-2023,8-7-59,1,23,k9,0,clipboard,R,classroom,scaled,k9_clipboard_R.png,m,1,615,23,3,clipboard,k9,214977,467836,33,Woman
731071,OSSe5,v1,jsons/s15.json,-0.3591259378811125,1920,969,1920,1080,6-15-2023,9-8-56,1,0,k8,0,laptop,L,classroom,scaled,k8_laptop_L.png,c,1,1720,0,4,laptop,k8,395191,767800,45,Man
731071,OSSe5,v1,jsons/s15.json,0.8111633569388068,1920,969,1920,1080,6-15-2023,9-8-56,1,1,c11,0,saltshaker,R,kitchen,misscaled,c11_saltshaker_R.png,m,1,2460,1,1,saltshaker,c11,395191,767800,45,Man
731071,OSSe5,v1,jsons/s15.json,-0.04915742195583658,1920,969,1920,1080,6-15-2023,9-8-56,1,2,c2,0,toaster,L,kitchen,scaled,c2_toaster_L.png,c,1,1916,2,2,toaster,c2,395191,767800,45,Man
731071,OSSe5,v1,jsons/s15.json,-0.13139396699723632,1920,969,1920,1080,6-15-2023,9-8-56,1,3,c4,1,clipboard,L,classroom,scaled,c4_clipboard_L.png,c,1,1864,3,1,clipboard,c4,395191,767800,45,Man
731071,OSSe5,v1,jsons/s15.json,0.7732080284581608,1920,969,1920,1080,6-15-2023,9-8-56,1,4,c9,1,notebook,R,classroom,scaled,c9_notebook_R.png,m,1,2436,4,4,notebook,c9,395191,767800,45,Man
731071,OSSe5,v1,jsons/s15.json,0.31932555871043533,1920,969,1920,1080,6-15-2023,9-8-56,1,5,c8,1,laptop,L,classroom,scaled,c8_laptop_L.png,c,1,2149,5,1,laptop,c8,395191,767800,45,Man
